74CSV  	
// AQ6374 OPTICAL SPECTRUM ANALYZER //                  
35
"CTRWL", 807.000000
"SPAN", 514.000000
"START WL", 550.000000
"STOP WL",1064.000000
"WLFREQ", 0
"REFL",-60.6
"LSCL", 2.9
"RESLN",1.000
"AVG",   1
"SMPLAUTO",      1
"SMPL",       2571
"SMPLINTVL",0.2000
"HIGH1"
"MEAS"
"LSUNT",0
"NMSKH","OFF"
"RESCOR",0
"SMOOTH",0
"MEASWL",1
"SWPSPD",0
"MODELNAME","AQ6374"
"CHGPT",        102
"RESCAL0_0",       9996
"RESCAL0_1",       -866
"RESCAL0_2",    1341521
"RESCAL1_0",      10053
"RESCAL1_1",          0
"RESCAL1_2",          0
"CORESIZE", 0






"[TRACE DATA]"
 550.0000,-210.000
 550.2000,-210.000
 550.4000, -76.983
 550.6000, -70.166
 550.8000, -74.573
 551.0000, -69.947
 551.2000,-210.000
 551.4000, -78.019
 551.6000,-210.000
 551.8000,-210.000
 552.0000,-210.000
 552.2000,-210.000
 552.4000,-210.000
 552.6000, -78.508
 552.8000, -73.358
 553.0000, -74.672
 553.2000, -68.958
 553.4000,-210.000
 553.6000,-210.000
 553.8000, -71.295
 554.0000, -70.552
 554.2000,-210.000
 554.4000, -89.351
 554.6000, -68.805
 554.8000, -73.687
 555.0000,-210.000
 555.2000,-210.000
 555.4000,-210.000
 555.6000, -71.362
 555.8000, -77.109
 556.0000,-210.000
 556.2000,-210.000
 556.4000,-210.000
 556.6000,-210.000
 556.8000, -72.422
 557.0000,-210.000
 557.2000,-210.000
 557.4000,-210.000
 557.6000,-210.000
 557.8000,-210.000
 558.0000,-210.000
 558.2000,-210.000
 558.4000,-210.000
 558.6000, -74.904
 558.8000, -66.871
 559.0000, -71.353
 559.2000, -70.912
 559.4000,-210.000
 559.6000,-210.000
 559.8000, -72.392
 560.0000,-210.000
 560.2000, -76.698
 560.4000,-210.000
 560.6000, -70.192
 560.8000, -69.700
 561.0000,-210.000
 561.2000,-210.000
 561.4000,-210.000
 561.6000,-210.000
 561.8000,-210.000
 562.0000, -74.180
 562.2000,-210.000
 562.4000,-210.000
 562.6000, -72.703
 562.8000, -76.484
 563.0000,-210.000
 563.2000, -70.358
 563.4000, -72.511
 563.6000,-210.000
 563.8000,-210.000
 564.0000,-210.000
 564.2000,-210.000
 564.4000,-210.000
 564.6000,-210.000
 564.8000,-210.000
 565.0000,-210.000
 565.2000,-210.000
 565.4000,-210.000
 565.6000,-210.000
 565.8000,-210.000
 566.0000, -74.357
 566.2000, -68.099
 566.4000,-210.000
 566.6000,-210.000
 566.8000,-210.000
 567.0000,-210.000
 567.2000, -69.628
 567.4000,-210.000
 567.6000,-210.000
 567.8000, -68.605
 568.0000,-210.000
 568.2000,-210.000
 568.4000,-210.000
 568.6000,-210.000
 568.8000, -68.766
 569.0000, -74.677
 569.2000,-210.000
 569.4000,-210.000
 569.6000,-210.000
 569.8000,-210.000
 570.0000,-210.000
 570.2000, -70.124
 570.4000, -78.425
 570.6000,-210.000
 570.8000,-210.000
 571.0000,-210.000
 571.2000,-210.000
 571.4000,-210.000
 571.6000,-210.000
 571.8000, -94.462
 572.0000,-210.000
 572.2000, -71.446
 572.4000,-210.000
 572.6000,-210.000
 572.8000,-210.000
 573.0000,-210.000
 573.2000, -79.757
 573.4000, -71.678
 573.6000, -87.315
 573.8000, -71.924
 574.0000, -71.333
 574.2000,-210.000
 574.4000, -69.753
 574.6000, -77.461
 574.8000, -83.242
 575.0000, -82.424
 575.2000, -74.663
 575.4000, -74.894
 575.6000,-210.000
 575.8000, -80.569
 576.0000,-210.000
 576.2000,-210.000
 576.4000,-210.000
 576.6000, -74.948
 576.8000,-210.000
 577.0000,-210.000
 577.2000,-210.000
 577.4000,-210.000
 577.6000, -71.818
 577.8000, -76.028
 578.0000,-210.000
 578.2000, -76.262
 578.4000, -81.411
 578.6000, -74.798
 578.8000,-210.000
 579.0000, -79.243
 579.2000, -76.802
 579.4000,-210.000
 579.6000, -83.788
 579.8000,-210.000
 580.0000,-210.000
 580.2000, -91.620
 580.4000, -75.237
 580.6000, -74.784
 580.8000,-210.000
 581.0000, -74.117
 581.2000,-210.000
 581.4000, -77.456
 581.6000, -71.740
 581.8000, -76.805
 582.0000,-210.000
 582.2000, -78.682
 582.4000,-210.000
 582.6000,-210.000
 582.8000, -87.231
 583.0000, -78.295
 583.2000, -72.286
 583.4000, -80.208
 583.6000,-210.000
 583.8000, -76.211
 584.0000,-210.000
 584.2000,-210.000
 584.4000,-210.000
 584.6000,-210.000
 584.8000,-210.000
 585.0000,-210.000
 585.2000, -88.131
 585.4000, -76.143
 585.6000,-210.000
 585.8000, -77.863
 586.0000,-210.000
 586.2000, -78.630
 586.4000, -75.881
 586.6000, -70.992
 586.8000, -70.628
 587.0000,-210.000
 587.2000,-210.000
 587.4000,-210.000
 587.6000,-210.000
 587.8000, -79.726
 588.0000, -70.956
 588.2000, -76.024
 588.4000, -76.042
 588.6000,-210.000
 588.8000,-210.000
 589.0000, -74.765
 589.2000,-210.000
 589.4000,-210.000
 589.6000, -81.306
 589.8000,-210.000
 590.0000, -72.540
 590.2000, -88.403
 590.4000, -70.618
 590.6000, -76.679
 590.8000, -72.389
 591.0000, -73.256
 591.2000, -81.726
 591.4000, -76.820
 591.6000, -80.225
 591.8000, -73.766
 592.0000,-210.000
 592.2000,-210.000
 592.4000,-210.000
 592.6000,-210.000
 592.8000,-210.000
 593.0000, -73.587
 593.2000,-210.000
 593.4000,-210.000
 593.6000, -73.663
 593.8000,-210.000
 594.0000, -73.811
 594.2000, -76.902
 594.4000,-210.000
 594.6000,-210.000
 594.8000,-210.000
 595.0000, -79.768
 595.2000,-210.000
 595.4000, -76.981
 595.6000, -74.340
 595.8000,-210.000
 596.0000,-210.000
 596.2000, -77.917
 596.4000,-210.000
 596.6000, -77.504
 596.8000,-210.000
 597.0000,-210.000
 597.2000,-210.000
 597.4000,-210.000
 597.6000, -79.769
 597.8000,-210.000
 598.0000, -80.064
 598.2000, -78.816
 598.4000, -79.634
 598.6000, -77.439
 598.8000, -87.462
 599.0000,-210.000
 599.2000, -78.771
 599.4000, -75.343
 599.6000,-210.000
 599.8000, -76.108
 600.0000,-210.000
 600.2000, -73.068
 600.4000, -73.492
 600.6000, -73.663
 600.8000, -83.424
 601.0000,-210.000
 601.2000, -75.205
 601.4000,-210.000
 601.6000, -78.221
 601.8000, -73.368
 602.0000,-210.000
 602.2000,-210.000
 602.4000,-210.000
 602.6000, -76.875
 602.8000,-210.000
 603.0000,-210.000
 603.2000,-210.000
 603.4000, -72.290
 603.6000, -75.960
 603.8000, -79.264
 604.0000, -78.960
 604.2000, -76.067
 604.4000, -75.290
 604.6000, -73.935
 604.8000, -76.291
 605.0000,-210.000
 605.2000, -74.661
 605.4000,-210.000
 605.6000, -74.242
 605.8000, -73.081
 606.0000, -72.872
 606.2000,-210.000
 606.4000,-210.000
 606.6000,-210.000
 606.8000, -70.936
 607.0000, -74.258
 607.2000,-210.000
 607.4000, -72.322
 607.6000, -72.997
 607.8000, -75.927
 608.0000, -81.041
 608.2000, -73.998
 608.4000, -73.595
 608.6000, -75.113
 608.8000, -73.947
 609.0000,-210.000
 609.2000,-210.000
 609.4000, -74.791
 609.6000,-210.000
 609.8000, -72.611
 610.0000,-210.000
 610.2000, -75.053
 610.4000,-210.000
 610.6000,-210.000
 610.8000, -87.900
 611.0000, -71.906
 611.2000, -78.469
 611.4000, -71.662
 611.6000, -74.739
 611.8000, -74.682
 612.0000, -75.087
 612.2000, -75.495
 612.4000, -73.180
 612.6000, -72.578
 612.8000, -77.177
 613.0000, -76.812
 613.2000, -77.827
 613.4000, -72.168
 613.6000, -75.162
 613.8000, -72.656
 614.0000, -75.979
 614.2000, -73.221
 614.4000, -75.717
 614.6000, -74.897
 614.8000, -70.396
 615.0000, -72.777
 615.2000, -71.608
 615.4000, -74.507
 615.6000, -71.601
 615.8000, -72.727
 616.0000, -72.958
 616.2000, -72.406
 616.4000, -76.690
 616.6000, -71.312
 616.8000, -73.142
 617.0000,-210.000
 617.2000, -75.131
 617.4000,-210.000
 617.6000, -75.679
 617.8000, -71.400
 618.0000, -75.293
 618.2000, -70.386
 618.4000, -70.818
 618.6000, -71.054
 618.8000, -73.313
 619.0000, -71.855
 619.2000, -71.948
 619.4000, -71.415
 619.6000, -72.950
 619.8000, -71.727
 620.0000, -70.427
 620.2000, -70.749
 620.4000, -73.931
 620.6000, -73.427
 620.8000, -72.993
 621.0000, -71.103
 621.2000, -70.553
 621.4000, -72.182
 621.6000, -74.267
 621.8000, -71.274
 622.0000, -71.329
 622.2000, -72.753
 622.4000, -74.462
 622.6000, -69.676
 622.8000, -69.189
 623.0000, -70.888
 623.2000, -70.663
 623.4000, -73.597
 623.6000, -73.954
 623.8000, -72.591
 624.0000, -68.937
 624.2000, -70.517
 624.4000, -69.442
 624.6000, -70.685
 624.8000, -71.267
 625.0000, -71.364
 625.2000, -72.855
 625.4000, -69.139
 625.6000, -69.810
 625.8000, -69.541
 626.0000, -68.693
 626.2000, -71.249
 626.4000, -69.539
 626.6000, -68.128
 626.8000, -68.399
 627.0000, -69.999
 627.2000, -69.121
 627.4000, -69.084
 627.6000, -69.109
 627.8000, -68.591
 628.0000, -68.493
 628.2000, -69.604
 628.4000, -68.712
 628.6000, -69.671
 628.8000, -68.330
 629.0000, -69.297
 629.2000, -68.557
 629.4000, -68.934
 629.6000, -68.982
 629.8000, -68.695
 630.0000, -68.598
 630.2000, -67.739
 630.4000, -68.415
 630.6000, -67.982
 630.8000, -69.478
 631.0000, -69.135
 631.2000, -68.343
 631.4000, -67.859
 631.6000, -67.756
 631.8000, -68.947
 632.0000, -68.447
 632.2000, -68.399
 632.4000, -68.407
 632.6000, -69.494
 632.8000, -67.414
 633.0000, -68.183
 633.2000, -67.979
 633.4000, -68.182
 633.6000, -68.353
 633.8000, -67.358
 634.0000, -66.721
 634.2000, -67.513
 634.4000, -67.664
 634.6000, -67.352
 634.8000, -67.794
 635.0000, -67.357
 635.2000, -66.749
 635.4000, -66.694
 635.6000, -66.923
 635.8000, -66.529
 636.0000, -66.249
 636.2000, -66.814
 636.4000, -66.710
 636.6000, -66.789
 636.8000, -67.538
 637.0000, -67.242
 637.2000, -66.425
 637.4000, -67.348
 637.6000, -66.679
 637.8000, -66.496
 638.0000, -67.828
 638.2000, -67.663
 638.4000, -66.822
 638.6000, -66.118
 638.8000, -66.802
 639.0000, -66.661
 639.2000, -66.725
 639.4000, -66.590
 639.6000, -67.188
 639.8000, -66.357
 640.0000, -67.449
 640.2000, -66.975
 640.4000, -66.213
 640.6000, -65.887
 640.8000, -67.032
 641.0000, -66.077
 641.2000, -65.954
 641.4000, -66.448
 641.6000, -65.862
 641.8000, -66.100
 642.0000, -65.908
 642.2000, -66.366
 642.4000, -65.856
 642.6000, -66.321
 642.8000, -66.805
 643.0000, -66.177
 643.2000, -66.364
 643.4000, -65.425
 643.6000, -66.141
 643.8000, -66.068
 644.0000, -66.559
 644.2000, -65.774
 644.4000, -65.981
 644.6000, -66.232
 644.8000, -65.227
 645.0000, -65.784
 645.2000, -65.815
 645.4000, -65.622
 645.6000, -65.641
 645.8000, -66.008
 646.0000, -65.817
 646.2000, -65.230
 646.4000, -65.395
 646.6000, -66.028
 646.8000, -66.144
 647.0000, -65.989
 647.2000, -65.335
 647.4000, -64.935
 647.6000, -65.246
 647.8000, -65.305
 648.0000, -65.434
 648.2000, -65.195
 648.4000, -65.293
 648.6000, -65.257
 648.8000, -65.906
 649.0000, -65.048
 649.2000, -64.934
 649.4000, -65.063
 649.6000, -65.475
 649.8000, -65.625
 650.0000, -65.380
 650.2000, -65.243
 650.4000, -65.159
 650.6000, -64.992
 650.8000, -65.632
 651.0000, -65.097
 651.2000, -64.812
 651.4000, -65.232
 651.6000, -65.091
 651.8000, -65.183
 652.0000, -65.046
 652.2000, -64.922
 652.4000, -65.060
 652.6000, -64.973
 652.8000, -64.808
 653.0000, -64.844
 653.2000, -64.963
 653.4000, -64.897
 653.6000, -64.812
 653.8000, -64.945
 654.0000, -64.784
 654.2000, -64.646
 654.4000, -64.642
 654.6000, -64.851
 654.8000, -64.315
 655.0000, -64.613
 655.2000, -64.622
 655.4000, -64.441
 655.6000, -64.238
 655.8000, -64.501
 656.0000, -64.441
 656.2000, -64.562
 656.4000, -64.755
 656.6000, -64.537
 656.8000, -64.408
 657.0000, -64.596
 657.2000, -64.156
 657.4000, -64.174
 657.6000, -64.224
 657.8000, -64.357
 658.0000, -64.418
 658.2000, -64.807
 658.4000, -64.333
 658.6000, -64.316
 658.8000, -64.145
 659.0000, -63.956
 659.2000, -63.968
 659.4000, -64.400
 659.6000, -64.330
 659.8000, -64.112
 660.0000, -64.212
 660.2000, -64.095
 660.4000, -64.180
 660.6000, -63.929
 660.8000, -63.879
 661.0000, -64.237
 661.2000, -63.914
 661.4000, -63.985
 661.6000, -63.792
 661.8000, -64.086
 662.0000, -64.108
 662.2000, -64.239
 662.4000, -64.087
 662.6000, -64.087
 662.8000, -63.721
 663.0000, -63.813
 663.2000, -63.786
 663.4000, -63.934
 663.6000, -64.058
 663.8000, -63.692
 664.0000, -63.792
 664.2000, -63.850
 664.4000, -63.812
 664.6000, -63.579
 664.8000, -63.606
 665.0000, -64.144
 665.2000, -63.838
 665.4000, -63.757
 665.6000, -63.635
 665.8000, -63.457
 666.0000, -63.691
 666.2000, -63.795
 666.4000, -63.667
 666.6000, -63.699
 666.8000, -63.378
 667.0000, -63.567
 667.2000, -63.792
 667.4000, -63.685
 667.6000, -63.773
 667.8000, -63.541
 668.0000, -63.419
 668.2000, -63.398
 668.4000, -63.597
 668.6000, -63.546
 668.8000, -63.867
 669.0000, -63.533
 669.2000, -63.593
 669.4000, -63.674
 669.6000, -63.679
 669.8000, -63.512
 670.0000, -63.561
 670.2000, -63.541
 670.4000, -63.424
 670.6000, -63.637
 670.8000, -63.682
 671.0000, -63.480
 671.2000, -63.216
 671.4000, -63.379
 671.6000, -63.255
 671.8000, -63.362
 672.0000, -63.288
 672.2000, -63.422
 672.4000, -63.466
 672.6000, -63.326
 672.8000, -63.380
 673.0000, -63.246
 673.2000, -63.236
 673.4000, -63.229
 673.6000, -63.488
 673.8000, -63.444
 674.0000, -63.438
 674.2000, -63.692
 674.4000, -63.867
 674.6000, -63.461
 674.8000, -63.314
 675.0000, -63.425
 675.2000, -63.563
 675.4000, -63.389
 675.6000, -63.330
 675.8000, -63.219
 676.0000, -63.240
 676.2000, -63.267
 676.4000, -63.438
 676.6000, -63.456
 676.8000, -63.270
 677.0000, -63.506
 677.2000, -63.441
 677.4000, -63.651
 677.6000, -63.528
 677.8000, -63.409
 678.0000, -63.567
 678.2000, -63.254
 678.4000, -63.225
 678.6000, -63.258
 678.8000, -63.265
 679.0000, -63.425
 679.2000, -63.505
 679.4000, -63.417
 679.6000, -63.239
 679.8000, -63.143
 680.0000, -63.051
 680.2000, -63.189
 680.4000, -63.243
 680.6000, -63.558
 680.8000, -63.397
 681.0000, -63.307
 681.2000, -63.271
 681.4000, -63.346
 681.6000, -63.510
 681.8000, -63.484
 682.0000, -63.489
 682.2000, -63.400
 682.4000, -63.254
 682.6000, -63.078
 682.8000, -63.258
 683.0000, -63.496
 683.2000, -63.254
 683.4000, -63.343
 683.6000, -63.650
 683.8000, -63.142
 684.0000, -63.441
 684.2000, -63.621
 684.4000, -63.683
 684.6000, -63.315
 684.8000, -63.204
 685.0000, -63.527
 685.2000, -63.556
 685.4000, -63.552
 685.6000, -63.211
 685.8000, -63.369
 686.0000, -63.494
 686.2000, -63.660
 686.4000, -63.461
 686.6000, -63.420
 686.8000, -63.545
 687.0000, -63.669
 687.2000, -63.589
 687.4000, -63.418
 687.6000, -63.613
 687.8000, -63.599
 688.0000, -63.724
 688.2000, -63.649
 688.4000, -63.468
 688.6000, -63.210
 688.8000, -63.442
 689.0000, -63.460
 689.2000, -63.480
 689.4000, -63.710
 689.6000, -63.432
 689.8000, -63.708
 690.0000, -63.677
 690.2000, -63.460
 690.4000, -63.643
 690.6000, -63.709
 690.8000, -63.597
 691.0000, -63.406
 691.2000, -63.695
 691.4000, -63.793
 691.6000, -63.811
 691.8000, -63.568
 692.0000, -63.710
 692.2000, -63.678
 692.4000, -63.624
 692.6000, -63.602
 692.8000, -63.724
 693.0000, -63.645
 693.2000, -63.690
 693.4000, -63.614
 693.6000, -63.926
 693.8000, -63.897
 694.0000, -63.736
 694.2000, -63.809
 694.4000, -64.056
 694.6000, -63.907
 694.8000, -63.506
 695.0000, -63.970
 695.2000, -63.892
 695.4000, -63.909
 695.6000, -63.707
 695.8000, -63.823
 696.0000, -63.939
 696.2000, -63.869
 696.4000, -64.008
 696.6000, -63.844
 696.8000, -63.871
 697.0000, -63.881
 697.2000, -64.075
 697.4000, -63.910
 697.6000, -63.999
 697.8000, -64.253
 698.0000, -64.193
 698.2000, -64.060
 698.4000, -63.875
 698.6000, -64.193
 698.8000, -64.115
 699.0000, -63.986
 699.2000, -63.722
 699.4000, -64.016
 699.6000, -63.960
 699.8000, -64.010
 700.0000, -63.979
 700.2000, -63.777
 700.4000, -64.034
 700.6000, -64.427
 700.8000, -63.787
 701.0000, -63.712
 701.2000, -64.264
 701.4000, -64.077
 701.6000, -64.141
 701.8000, -64.127
 702.0000, -64.044
 702.2000, -64.319
 702.4000, -64.265
 702.6000, -64.277
 702.8000, -64.131
 703.0000, -64.284
 703.2000, -64.383
 703.4000, -64.288
 703.6000, -63.999
 703.8000, -64.391
 704.0000, -64.278
 704.2000, -64.154
 704.4000, -64.446
 704.6000, -64.722
 704.8000, -64.300
 705.0000, -64.386
 705.2000, -64.441
 705.4000, -64.293
 705.6000, -64.204
 705.8000, -64.026
 706.0000, -64.792
 706.2000, -64.124
 706.4000, -64.362
 706.6000, -64.366
 706.8000, -64.430
 707.0000, -64.050
 707.2000, -64.388
 707.4000, -64.681
 707.6000, -64.755
 707.8000, -64.640
 708.0000, -64.482
 708.2000, -64.644
 708.4000, -64.191
 708.6000, -64.354
 708.8000, -64.470
 709.0000, -64.600
 709.2000, -64.343
 709.4000, -64.438
 709.6000, -64.494
 709.8000, -64.410
 710.0000, -65.047
 710.2000, -64.396
 710.4000, -64.411
 710.6000, -64.790
 710.8000, -64.443
 711.0000, -64.487
 711.2000, -64.572
 711.4000, -64.512
 711.6000, -64.617
 711.8000, -64.465
 712.0000, -64.332
 712.2000, -64.760
 712.4000, -64.874
 712.6000, -64.892
 712.8000, -64.695
 713.0000, -64.967
 713.2000, -64.515
 713.4000, -64.378
 713.6000, -64.209
 713.8000, -64.599
 714.0000, -64.741
 714.2000, -64.432
 714.4000, -64.747
 714.6000, -64.519
 714.8000, -64.761
 715.0000, -64.997
 715.2000, -64.653
 715.4000, -64.740
 715.6000, -64.508
 715.8000, -64.894
 716.0000, -64.542
 716.2000, -64.781
 716.4000, -65.008
 716.6000, -64.890
 716.8000, -64.601
 717.0000, -64.836
 717.2000, -64.754
 717.4000, -64.902
 717.6000, -64.998
 717.8000, -64.661
 718.0000, -64.637
 718.2000, -64.931
 718.4000, -64.880
 718.6000, -64.846
 718.8000, -64.654
 719.0000, -64.536
 719.2000, -64.852
 719.4000, -65.098
 719.6000, -64.972
 719.8000, -64.758
 720.0000, -64.915
 720.2000, -64.804
 720.4000, -64.740
 720.6000, -64.730
 720.8000, -64.793
 721.0000, -64.706
 721.2000, -64.473
 721.4000, -64.452
 721.6000, -64.656
 721.8000, -64.864
 722.0000, -64.934
 722.2000, -64.605
 722.4000, -65.028
 722.6000, -65.029
 722.8000, -64.811
 723.0000, -65.002
 723.2000, -65.050
 723.4000, -64.740
 723.6000, -64.742
 723.8000, -64.906
 724.0000, -65.148
 724.2000, -64.854
 724.4000, -64.760
 724.6000, -64.896
 724.8000, -64.874
 725.0000, -64.979
 725.2000, -64.736
 725.4000, -64.995
 725.6000, -64.788
 725.8000, -64.600
 726.0000, -64.970
 726.2000, -65.019
 726.4000, -64.926
 726.6000, -65.556
 726.8000, -65.042
 727.0000, -65.144
 727.2000, -64.835
 727.4000, -64.872
 727.6000, -64.971
 727.8000, -65.089
 728.0000, -64.973
 728.2000, -65.279
 728.4000, -65.062
 728.6000, -64.848
 728.8000, -65.114
 729.0000, -65.136
 729.2000, -64.879
 729.4000, -64.786
 729.6000, -65.147
 729.8000, -65.063
 730.0000, -65.160
 730.2000, -65.048
 730.4000, -64.970
 730.6000, -64.807
 730.8000, -64.734
 731.0000, -64.988
 731.2000, -65.214
 731.4000, -65.391
 731.6000, -64.952
 731.8000, -65.171
 732.0000, -65.355
 732.2000, -65.144
 732.4000, -65.045
 732.6000, -65.005
 732.8000, -65.498
 733.0000, -65.041
 733.2000, -65.313
 733.4000, -65.049
 733.6000, -65.376
 733.8000, -64.947
 734.0000, -65.220
 734.2000, -64.856
 734.4000, -65.029
 734.6000, -65.033
 734.8000, -64.877
 735.0000, -65.243
 735.2000, -65.160
 735.4000, -65.110
 735.6000, -64.847
 735.8000, -65.118
 736.0000, -65.093
 736.2000, -65.163
 736.4000, -65.071
 736.6000, -64.902
 736.8000, -65.229
 737.0000, -65.057
 737.2000, -65.137
 737.4000, -65.297
 737.6000, -65.244
 737.8000, -65.104
 738.0000, -65.194
 738.2000, -64.921
 738.4000, -65.086
 738.6000, -65.144
 738.8000, -65.016
 739.0000, -65.521
 739.2000, -65.028
 739.4000, -65.335
 739.6000, -65.014
 739.8000, -65.415
 740.0000, -65.435
 740.2000, -65.109
 740.4000, -65.108
 740.6000, -65.211
 740.8000, -65.373
 741.0000, -65.275
 741.2000, -65.244
 741.4000, -65.351
 741.6000, -65.493
 741.8000, -65.748
 742.0000, -65.549
 742.2000, -65.372
 742.4000, -65.087
 742.6000, -65.136
 742.8000, -65.247
 743.0000, -65.384
 743.2000, -65.309
 743.4000, -65.272
 743.6000, -65.761
 743.8000, -65.737
 744.0000, -65.511
 744.2000, -65.359
 744.4000, -64.978
 744.6000, -65.611
 744.8000, -65.581
 745.0000, -65.423
 745.2000, -65.243
 745.4000, -65.503
 745.6000, -65.407
 745.8000, -65.249
 746.0000, -65.393
 746.2000, -65.715
 746.4000, -65.114
 746.6000, -65.311
 746.8000, -65.507
 747.0000, -65.262
 747.2000, -65.397
 747.4000, -65.649
 747.6000, -65.346
 747.8000, -65.238
 748.0000, -65.145
 748.2000, -65.315
 748.4000, -65.291
 748.6000, -65.558
 748.8000, -65.321
 749.0000, -65.855
 749.2000, -65.451
 749.4000, -65.512
 749.6000, -65.555
 749.8000, -65.503
 750.0000, -65.462
 750.2000, -65.816
 750.4000, -65.693
 750.6000, -65.483
 750.8000, -65.571
 751.0000, -65.639
 751.2000, -65.561
 751.4000, -65.689
 751.6000, -65.433
 751.8000, -65.920
 752.0000, -65.690
 752.2000, -65.885
 752.4000, -65.445
 752.6000, -65.928
 752.8000, -65.607
 753.0000, -65.779
 753.2000, -65.738
 753.4000, -65.737
 753.6000, -65.778
 753.8000, -65.563
 754.0000, -65.632
 754.2000, -65.772
 754.4000, -65.765
 754.6000, -66.231
 754.8000, -65.999
 755.0000, -66.066
 755.2000, -65.849
 755.4000, -65.606
 755.6000, -65.894
 755.8000, -66.115
 756.0000, -65.980
 756.2000, -65.757
 756.4000, -65.984
 756.6000, -65.609
 756.8000, -65.679
 757.0000, -65.670
 757.2000, -65.995
 757.4000, -65.979
 757.6000, -65.977
 757.8000, -66.029
 758.0000, -65.780
 758.2000, -65.984
 758.4000, -65.833
 758.6000, -65.667
 758.8000, -66.061
 759.0000, -65.898
 759.2000, -65.960
 759.4000, -65.855
 759.6000, -66.006
 759.8000, -66.141
 760.0000, -65.904
 760.2000, -66.200
 760.4000, -66.080
 760.6000, -65.773
 760.8000, -66.454
 761.0000, -65.980
 761.2000, -65.960
 761.4000, -66.081
 761.6000, -65.790
 761.8000, -66.216
 762.0000, -66.294
 762.2000, -66.402
 762.4000, -66.117
 762.6000, -65.978
 762.8000, -66.160
 763.0000, -66.137
 763.2000, -66.289
 763.4000, -66.308
 763.6000, -65.901
 763.8000, -66.389
 764.0000, -66.121
 764.2000, -66.306
 764.4000, -66.256
 764.6000, -66.361
 764.8000, -66.337
 765.0000, -66.135
 765.2000, -66.332
 765.4000, -66.544
 765.6000, -66.443
 765.8000, -66.628
 766.0000, -66.632
 766.2000, -66.476
 766.4000, -66.494
 766.6000, -66.378
 766.8000, -66.440
 767.0000, -66.311
 767.2000, -66.164
 767.4000, -66.330
 767.6000, -66.321
 767.8000, -66.350
 768.0000, -66.532
 768.2000, -66.637
 768.4000, -66.156
 768.6000, -66.428
 768.8000, -66.318
 769.0000, -66.702
 769.2000, -66.932
 769.4000, -66.286
 769.6000, -66.378
 769.8000, -66.562
 770.0000, -66.728
 770.2000, -66.044
 770.4000, -66.798
 770.6000, -66.488
 770.8000, -66.699
 771.0000, -66.237
 771.2000, -66.169
 771.4000, -66.728
 771.6000, -66.775
 771.8000, -66.435
 772.0000, -66.586
 772.2000, -66.604
 772.4000, -66.889
 772.6000, -67.043
 772.8000, -66.938
 773.0000, -66.480
 773.2000, -66.790
 773.4000, -66.535
 773.6000, -66.767
 773.8000, -66.322
 774.0000, -66.687
 774.2000, -67.018
 774.4000, -66.851
 774.6000, -66.938
 774.8000, -66.546
 775.0000, -66.629
 775.2000, -66.708
 775.4000, -66.453
 775.6000, -66.708
 775.8000, -66.692
 776.0000, -67.056
 776.2000, -66.688
 776.4000, -66.805
 776.6000, -67.395
 776.8000, -67.103
 777.0000, -66.326
 777.2000, -66.672
 777.4000, -66.582
 777.6000, -66.686
 777.8000, -66.830
 778.0000, -67.179
 778.2000, -67.037
 778.4000, -67.133
 778.6000, -67.086
 778.8000, -66.815
 779.0000, -66.559
 779.2000, -66.953
 779.4000, -67.499
 779.6000, -66.465
 779.8000, -66.757
 780.0000, -66.602
 780.2000, -66.785
 780.4000, -66.792
 780.6000, -66.875
 780.8000, -66.870
 781.0000, -67.338
 781.2000, -66.414
 781.4000, -66.632
 781.6000, -66.882
 781.8000, -66.804
 782.0000, -67.117
 782.2000, -66.473
 782.4000, -67.303
 782.6000, -67.596
 782.8000, -66.770
 783.0000, -67.399
 783.2000, -67.308
 783.4000, -67.294
 783.6000, -66.893
 783.8000, -67.560
 784.0000, -66.958
 784.2000, -66.874
 784.4000, -66.870
 784.6000, -67.096
 784.8000, -67.024
 785.0000, -67.001
 785.2000, -66.796
 785.4000, -66.933
 785.6000, -67.132
 785.8000, -66.994
 786.0000, -67.030
 786.2000, -67.377
 786.4000, -67.068
 786.6000, -67.410
 786.8000, -66.942
 787.0000, -67.295
 787.2000, -67.031
 787.4000, -67.359
 787.6000, -66.880
 787.8000, -67.448
 788.0000, -67.391
 788.2000, -67.243
 788.4000, -67.262
 788.6000, -66.858
 788.8000, -67.499
 789.0000, -67.286
 789.2000, -67.271
 789.4000, -67.443
 789.6000, -67.515
 789.8000, -67.395
 790.0000, -67.468
 790.2000, -67.337
 790.4000, -67.068
 790.6000, -67.746
 790.8000, -67.241
 791.0000, -67.345
 791.2000, -67.082
 791.4000, -67.362
 791.6000, -67.080
 791.8000, -67.165
 792.0000, -67.585
 792.2000, -67.175
 792.4000, -67.821
 792.6000, -67.188
 792.8000, -66.948
 793.0000, -67.310
 793.2000, -67.064
 793.4000, -67.128
 793.6000, -67.619
 793.8000, -67.263
 794.0000, -66.738
 794.2000, -67.042
 794.4000, -67.274
 794.6000, -67.471
 794.8000, -67.431
 795.0000, -67.762
 795.2000, -67.020
 795.4000, -66.813
 795.6000, -67.287
 795.8000, -67.277
 796.0000, -67.443
 796.2000, -67.296
 796.4000, -67.781
 796.6000, -67.265
 796.8000, -67.201
 797.0000, -67.013
 797.2000, -67.147
 797.4000, -67.629
 797.6000, -67.432
 797.8000, -67.267
 798.0000, -67.008
 798.2000, -67.846
 798.4000, -67.858
 798.6000, -67.491
 798.8000, -67.240
 799.0000, -67.354
 799.2000, -67.121
 799.4000, -67.630
 799.6000, -67.770
 799.8000, -67.363
 800.0000, -67.386
 800.2000, -67.599
 800.4000, -67.543
 800.6000, -67.360
 800.8000, -67.771
 801.0000, -67.739
 801.2000, -67.022
 801.4000, -67.243
 801.6000, -67.184
 801.8000, -67.391
 802.0000, -68.007
 802.2000, -67.332
 802.4000, -67.528
 802.6000, -67.497
 802.8000, -67.557
 803.0000, -67.124
 803.2000, -67.260
 803.4000, -67.236
 803.6000, -67.457
 803.8000, -67.630
 804.0000, -67.393
 804.2000, -67.710
 804.4000, -68.038
 804.6000, -67.804
 804.8000, -67.437
 805.0000, -67.153
 805.2000, -67.389
 805.4000, -67.174
 805.6000, -68.127
 805.8000, -67.264
 806.0000, -67.376
 806.2000, -67.286
 806.4000, -67.588
 806.6000, -67.857
 806.8000, -67.212
 807.0000, -67.728
 807.2000, -67.630
 807.4000, -67.394
 807.6000, -67.584
 807.8000, -67.446
 808.0000, -66.831
 808.2000, -67.282
 808.4000, -67.382
 808.6000, -67.641
 808.8000, -67.625
 809.0000, -67.550
 809.2000, -67.318
 809.4000, -67.292
 809.6000, -67.225
 809.8000, -67.693
 810.0000, -67.132
 810.2000, -67.321
 810.4000, -67.626
 810.6000, -68.243
 810.8000, -67.524
 811.0000, -67.259
 811.2000, -67.461
 811.4000, -68.076
 811.6000, -67.806
 811.8000, -67.413
 812.0000, -67.606
 812.2000, -67.696
 812.4000, -68.125
 812.6000, -67.270
 812.8000, -67.255
 813.0000, -68.288
 813.2000, -68.049
 813.4000, -67.424
 813.6000, -67.181
 813.8000, -67.675
 814.0000, -68.003
 814.2000, -67.487
 814.4000, -67.699
 814.6000, -67.422
 814.8000, -67.639
 815.0000, -67.283
 815.2000, -67.338
 815.4000, -67.705
 815.6000, -67.223
 815.8000, -67.228
 816.0000, -66.999
 816.2000, -67.408
 816.4000, -67.787
 816.6000, -67.608
 816.8000, -67.747
 817.0000, -67.944
 817.2000, -67.450
 817.4000, -67.909
 817.6000, -67.516
 817.8000, -68.081
 818.0000, -67.666
 818.2000, -67.880
 818.4000, -67.445
 818.6000, -67.566
 818.8000, -67.484
 819.0000, -68.328
 819.2000, -67.084
 819.4000, -67.875
 819.6000, -67.491
 819.8000, -67.994
 820.0000, -67.917
 820.2000, -67.791
 820.4000, -67.549
 820.6000, -67.710
 820.8000, -67.656
 821.0000, -67.853
 821.2000, -67.656
 821.4000, -67.734
 821.6000, -67.121
 821.8000, -67.537
 822.0000, -67.056
 822.2000, -68.020
 822.4000, -67.293
 822.6000, -68.021
 822.8000, -67.411
 823.0000, -68.269
 823.2000, -68.068
 823.4000, -67.820
 823.6000, -67.959
 823.8000, -67.741
 824.0000, -68.126
 824.2000, -67.992
 824.4000, -68.020
 824.6000, -67.620
 824.8000, -67.671
 825.0000, -67.256
 825.2000, -68.000
 825.4000, -67.858
 825.6000, -67.674
 825.8000, -67.650
 826.0000, -67.317
 826.2000, -67.191
 826.4000, -67.565
 826.6000, -68.059
 826.8000, -67.514
 827.0000, -67.637
 827.2000, -67.865
 827.4000, -67.699
 827.6000, -67.122
 827.8000, -67.572
 828.0000, -68.028
 828.2000, -67.733
 828.4000, -67.558
 828.6000, -67.571
 828.8000, -67.256
 829.0000, -67.701
 829.2000, -68.338
 829.4000, -67.299
 829.6000, -67.569
 829.8000, -67.510
 830.0000, -67.459
 830.2000, -67.675
 830.4000, -67.419
 830.6000, -67.988
 830.8000, -67.253
 831.0000, -67.837
 831.2000, -68.021
 831.4000, -67.961
 831.6000, -67.518
 831.8000, -67.897
 832.0000, -67.863
 832.2000, -67.423
 832.4000, -68.055
 832.6000, -67.620
 832.8000, -67.876
 833.0000, -68.101
 833.2000, -67.460
 833.4000, -67.886
 833.6000, -68.473
 833.8000, -67.838
 834.0000, -67.129
 834.2000, -68.055
 834.4000, -67.374
 834.6000, -67.759
 834.8000, -67.797
 835.0000, -67.557
 835.2000, -67.844
 835.4000, -67.765
 835.6000, -67.677
 835.8000, -68.287
 836.0000, -68.025
 836.2000, -67.505
 836.4000, -68.057
 836.6000, -68.059
 836.8000, -67.676
 837.0000, -67.724
 837.2000, -67.416
 837.4000, -68.104
 837.6000, -68.016
 837.8000, -67.918
 838.0000, -68.017
 838.2000, -68.055
 838.4000, -68.214
 838.6000, -68.085
 838.8000, -67.499
 839.0000, -67.975
 839.2000, -67.879
 839.4000, -68.449
 839.6000, -68.070
 839.8000, -67.098
 840.0000, -68.187
 840.2000, -68.894
 840.4000, -67.944
 840.6000, -68.009
 840.8000, -67.422
 841.0000, -67.587
 841.2000, -67.548
 841.4000, -67.925
 841.6000, -67.863
 841.8000, -68.106
 842.0000, -67.734
 842.2000, -67.946
 842.4000, -68.226
 842.6000, -67.971
 842.8000, -67.265
 843.0000, -68.191
 843.2000, -67.584
 843.4000, -68.073
 843.6000, -67.805
 843.8000, -68.460
 844.0000, -67.629
 844.2000, -68.248
 844.4000, -68.055
 844.6000, -68.051
 844.8000, -68.166
 845.0000, -68.085
 845.2000, -67.265
 845.4000, -68.168
 845.6000, -67.923
 845.8000, -68.291
 846.0000, -68.584
 846.2000, -68.090
 846.4000, -67.931
 846.6000, -67.532
 846.8000, -68.132
 847.0000, -67.945
 847.2000, -68.421
 847.4000, -68.211
 847.6000, -67.957
 847.8000, -67.832
 848.0000, -67.611
 848.2000, -68.705
 848.4000, -67.829
 848.6000, -67.930
 848.8000, -67.793
 849.0000, -67.394
 849.2000, -67.818
 849.4000, -68.028
 849.6000, -67.879
 849.8000, -68.100
 850.0000, -67.976
 850.2000, -67.911
 850.4000, -67.675
 850.6000, -68.059
 850.8000, -67.867
 851.0000, -67.811
 851.2000, -67.859
 851.4000, -67.997
 851.6000, -68.443
 851.8000, -68.022
 852.0000, -68.206
 852.2000, -68.047
 852.4000, -68.625
 852.6000, -68.199
 852.8000, -68.430
 853.0000, -67.576
 853.2000, -68.494
 853.4000, -67.938
 853.6000, -68.319
 853.8000, -67.572
 854.0000, -68.111
 854.2000, -68.175
 854.4000, -68.250
 854.6000, -68.081
 854.8000, -67.914
 855.0000, -68.100
 855.2000, -68.201
 855.4000, -67.821
 855.6000, -67.979
 855.8000, -67.844
 856.0000, -68.235
 856.2000, -68.170
 856.4000, -68.214
 856.6000, -67.860
 856.8000, -68.194
 857.0000, -67.872
 857.2000, -67.562
 857.4000, -68.033
 857.6000, -68.529
 857.8000, -68.462
 858.0000, -67.602
 858.2000, -67.701
 858.4000, -68.059
 858.6000, -68.240
 858.8000, -68.073
 859.0000, -67.843
 859.2000, -68.264
 859.4000, -67.656
 859.6000, -67.640
 859.8000, -67.836
 860.0000, -68.139
 860.2000, -67.665
 860.4000, -68.137
 860.6000, -67.710
 860.8000, -68.849
 861.0000, -68.090
 861.2000, -67.796
 861.4000, -67.778
 861.6000, -67.456
 861.8000, -68.543
 862.0000, -67.952
 862.2000, -67.812
 862.4000, -68.135
 862.6000, -67.847
 862.8000, -67.859
 863.0000, -68.220
 863.2000, -67.810
 863.4000, -68.011
 863.6000, -68.244
 863.8000, -68.117
 864.0000, -68.324
 864.2000, -68.116
 864.4000, -68.205
 864.6000, -67.594
 864.8000, -68.298
 865.0000, -67.822
 865.2000, -68.010
 865.4000, -67.741
 865.6000, -68.080
 865.8000, -67.833
 866.0000, -67.999
 866.2000, -68.425
 866.4000, -68.072
 866.6000, -68.208
 866.8000, -67.716
 867.0000, -68.141
 867.2000, -67.652
 867.4000, -68.059
 867.6000, -67.857
 867.8000, -67.860
 868.0000, -67.802
 868.2000, -68.198
 868.4000, -68.213
 868.6000, -68.125
 868.8000, -68.858
 869.0000, -67.465
 869.2000, -67.720
 869.4000, -67.627
 869.6000, -67.754
 869.8000, -68.320
 870.0000, -67.901
 870.2000, -68.276
 870.4000, -68.004
 870.6000, -67.702
 870.8000, -68.184
 871.0000, -67.754
 871.2000, -67.862
 871.4000, -67.960
 871.6000, -67.997
 871.8000, -67.971
 872.0000, -67.802
 872.2000, -68.173
 872.4000, -67.721
 872.6000, -68.349
 872.8000, -67.676
 873.0000, -67.811
 873.2000, -68.196
 873.4000, -67.813
 873.6000, -67.241
 873.8000, -67.888
 874.0000, -67.845
 874.2000, -68.364
 874.4000, -68.118
 874.6000, -67.980
 874.8000, -67.784
 875.0000, -67.815
 875.2000, -68.000
 875.4000, -67.720
 875.6000, -68.149
 875.8000, -67.899
 876.0000, -67.911
 876.2000, -67.638
 876.4000, -67.756
 876.6000, -68.075
 876.8000, -67.802
 877.0000, -67.837
 877.2000, -67.854
 877.4000, -67.863
 877.6000, -67.677
 877.8000, -67.715
 878.0000, -67.983
 878.2000, -67.841
 878.4000, -67.701
 878.6000, -67.719
 878.8000, -67.523
 879.0000, -67.583
 879.2000, -67.433
 879.4000, -67.874
 879.6000, -67.697
 879.8000, -67.621
 880.0000, -67.810
 880.2000, -67.801
 880.4000, -68.093
 880.6000, -67.497
 880.8000, -67.499
 881.0000, -67.493
 881.2000, -67.634
 881.4000, -67.608
 881.6000, -67.960
 881.8000, -68.027
 882.0000, -67.604
 882.2000, -67.802
 882.4000, -67.928
 882.6000, -68.000
 882.8000, -67.836
 883.0000, -67.996
 883.2000, -67.810
 883.4000, -67.659
 883.6000, -67.595
 883.8000, -67.553
 884.0000, -67.731
 884.2000, -68.036
 884.4000, -67.602
 884.6000, -67.423
 884.8000, -67.873
 885.0000, -67.488
 885.2000, -67.253
 885.4000, -67.535
 885.6000, -67.513
 885.8000, -67.672
 886.0000, -67.829
 886.2000, -67.628
 886.4000, -67.459
 886.6000, -67.706
 886.8000, -67.756
 887.0000, -67.468
 887.2000, -67.884
 887.4000, -67.822
 887.6000, -67.578
 887.8000, -67.707
 888.0000, -67.692
 888.2000, -67.442
 888.4000, -67.665
 888.6000, -67.358
 888.8000, -67.826
 889.0000, -67.511
 889.2000, -67.591
 889.4000, -67.545
 889.6000, -67.460
 889.8000, -67.731
 890.0000, -67.432
 890.2000, -67.541
 890.4000, -67.329
 890.6000, -67.349
 890.8000, -67.467
 891.0000, -67.345
 891.2000, -67.387
 891.4000, -67.446
 891.6000, -67.320
 891.8000, -67.534
 892.0000, -67.788
 892.2000, -67.561
 892.4000, -67.682
 892.6000, -67.195
 892.8000, -67.046
 893.0000, -67.541
 893.2000, -67.541
 893.4000, -67.693
 893.6000, -67.016
 893.8000, -67.384
 894.0000, -67.387
 894.2000, -67.447
 894.4000, -67.616
 894.6000, -67.460
 894.8000, -67.292
 895.0000, -67.536
 895.2000, -67.381
 895.4000, -67.090
 895.6000, -67.323
 895.8000, -67.895
 896.0000, -67.052
 896.2000, -67.190
 896.4000, -67.079
 896.6000, -67.553
 896.8000, -67.045
 897.0000, -67.162
 897.2000, -67.507
 897.4000, -67.531
 897.6000, -67.439
 897.8000, -67.516
 898.0000, -67.656
 898.2000, -67.426
 898.4000, -67.494
 898.6000, -67.385
 898.8000, -67.074
 899.0000, -67.440
 899.2000, -67.200
 899.4000, -67.348
 899.6000, -66.961
 899.8000, -67.304
 900.0000, -67.334
 900.2000, -67.320
 900.4000, -67.380
 900.6000, -67.385
 900.8000, -67.283
 901.0000, -67.079
 901.2000, -67.432
 901.4000, -67.302
 901.6000, -67.477
 901.8000, -67.290
 902.0000, -67.150
 902.2000, -67.221
 902.4000, -67.144
 902.6000, -67.280
 902.8000, -67.216
 903.0000, -67.505
 903.2000, -67.227
 903.4000, -67.279
 903.6000, -67.292
 903.8000, -67.020
 904.0000, -67.214
 904.2000, -67.152
 904.4000, -67.112
 904.6000, -67.146
 904.8000, -66.957
 905.0000, -67.437
 905.2000, -67.132
 905.4000, -67.291
 905.6000, -66.977
 905.8000, -67.398
 906.0000, -67.145
 906.2000, -66.981
 906.4000, -67.111
 906.6000, -67.133
 906.8000, -67.171
 907.0000, -67.243
 907.2000, -66.899
 907.4000, -67.166
 907.6000, -67.266
 907.8000, -67.154
 908.0000, -67.180
 908.2000, -67.035
 908.4000, -67.128
 908.6000, -67.198
 908.8000, -66.861
 909.0000, -66.978
 909.2000, -66.712
 909.4000, -67.103
 909.6000, -67.099
 909.8000, -67.145
 910.0000, -67.044
 910.2000, -66.765
 910.4000, -66.844
 910.6000, -66.899
 910.8000, -67.306
 911.0000, -66.967
 911.2000, -67.261
 911.4000, -66.943
 911.6000, -66.848
 911.8000, -66.758
 912.0000, -67.019
 912.2000, -67.044
 912.4000, -67.150
 912.6000, -66.770
 912.8000, -66.743
 913.0000, -67.344
 913.2000, -67.026
 913.4000, -66.903
 913.6000, -66.773
 913.8000, -66.646
 914.0000, -67.001
 914.2000, -66.860
 914.4000, -66.863
 914.6000, -66.951
 914.8000, -66.786
 915.0000, -67.036
 915.2000, -66.717
 915.4000, -66.862
 915.6000, -66.729
 915.8000, -66.708
 916.0000, -66.901
 916.2000, -66.679
 916.4000, -66.565
 916.6000, -66.858
 916.8000, -66.940
 917.0000, -66.459
 917.2000, -66.953
 917.4000, -66.782
 917.6000, -66.986
 917.8000, -66.598
 918.0000, -66.595
 918.2000, -66.933
 918.4000, -66.577
 918.6000, -66.897
 918.8000, -66.830
 919.0000, -66.946
 919.2000, -66.706
 919.4000, -66.623
 919.6000, -66.607
 919.8000, -66.781
 920.0000, -66.840
 920.2000, -66.847
 920.4000, -66.511
 920.6000, -66.818
 920.8000, -66.422
 921.0000, -66.736
 921.2000, -66.947
 921.4000, -66.529
 921.6000, -66.420
 921.8000, -66.967
 922.0000, -66.631
 922.2000, -66.798
 922.4000, -66.965
 922.6000, -66.597
 922.8000, -66.763
 923.0000, -66.436
 923.2000, -66.690
 923.4000, -66.561
 923.6000, -66.562
 923.8000, -66.655
 924.0000, -66.653
 924.2000, -66.873
 924.4000, -66.518
 924.6000, -66.662
 924.8000, -66.623
 925.0000, -66.763
 925.2000, -66.553
 925.4000, -66.942
 925.6000, -66.680
 925.8000, -66.420
 926.0000, -66.685
 926.2000, -66.695
 926.4000, -66.556
 926.6000, -66.466
 926.8000, -66.373
 927.0000, -66.571
 927.2000, -66.546
 927.4000, -66.547
 927.6000, -66.292
 927.8000, -66.505
 928.0000, -66.449
 928.2000, -66.564
 928.4000, -66.466
 928.6000, -66.430
 928.8000, -66.692
 929.0000, -66.373
 929.2000, -66.441
 929.4000, -66.362
 929.6000, -66.478
 929.8000, -66.304
 930.0000, -66.750
 930.2000, -66.492
 930.4000, -66.715
 930.6000, -66.550
 930.8000, -66.323
 931.0000, -66.618
 931.2000, -66.492
 931.4000, -66.446
 931.6000, -66.460
 931.8000, -66.577
 932.0000, -66.622
 932.2000, -66.544
 932.4000, -66.537
 932.6000, -66.458
 932.8000, -66.830
 933.0000, -66.526
 933.2000, -66.483
 933.4000, -66.657
 933.6000, -66.463
 933.8000, -66.754
 934.0000, -66.247
 934.2000, -66.633
 934.4000, -66.580
 934.6000, -66.588
 934.8000, -66.717
 935.0000, -66.244
 935.2000, -66.338
 935.4000, -66.524
 935.6000, -66.714
 935.8000, -66.411
 936.0000, -66.620
 936.2000, -66.510
 936.4000, -66.342
 936.6000, -66.438
 936.8000, -66.300
 937.0000, -66.407
 937.2000, -66.185
 937.4000, -66.642
 937.6000, -66.259
 937.8000, -66.271
 938.0000, -66.709
 938.2000, -66.356
 938.4000, -66.488
 938.6000, -66.377
 938.8000, -66.792
 939.0000, -66.510
 939.2000, -66.433
 939.4000, -66.613
 939.6000, -66.540
 939.8000, -66.363
 940.0000, -66.306
 940.2000, -66.442
 940.4000, -66.422
 940.6000, -66.347
 940.8000, -66.371
 941.0000, -66.656
 941.2000, -66.653
 941.4000, -66.349
 941.6000, -66.640
 941.8000, -66.490
 942.0000, -66.336
 942.2000, -66.560
 942.4000, -66.354
 942.6000, -66.588
 942.8000, -66.367
 943.0000, -66.676
 943.2000, -66.267
 943.4000, -66.402
 943.6000, -66.281
 943.8000, -66.205
 944.0000, -66.236
 944.2000, -66.666
 944.4000, -66.505
 944.6000, -66.113
 944.8000, -66.460
 945.0000, -66.324
 945.2000, -66.408
 945.4000, -66.440
 945.6000, -66.471
 945.8000, -66.522
 946.0000, -66.495
 946.2000, -66.601
 946.4000, -66.457
 946.6000, -66.448
 946.8000, -66.422
 947.0000, -66.341
 947.2000, -66.368
 947.4000, -66.366
 947.6000, -66.693
 947.8000, -66.517
 948.0000, -66.441
 948.2000, -66.255
 948.4000, -66.274
 948.6000, -66.336
 948.8000, -66.527
 949.0000, -66.293
 949.2000, -66.372
 949.4000, -66.415
 949.6000, -66.485
 949.8000, -66.291
 950.0000, -66.476
 950.2000, -66.458
 950.4000, -66.259
 950.6000, -66.453
 950.8000, -66.381
 951.0000, -66.402
 951.2000, -66.300
 951.4000, -66.346
 951.6000, -66.395
 951.8000, -66.512
 952.0000, -66.352
 952.2000, -66.434
 952.4000, -66.365
 952.6000, -66.350
 952.8000, -66.469
 953.0000, -66.639
 953.2000, -66.555
 953.4000, -66.410
 953.6000, -66.531
 953.8000, -66.299
 954.0000, -66.363
 954.2000, -66.434
 954.4000, -66.354
 954.6000, -66.667
 954.8000, -66.492
 955.0000, -66.406
 955.2000, -66.716
 955.4000, -66.524
 955.6000, -66.282
 955.8000, -66.483
 956.0000, -66.535
 956.2000, -66.547
 956.4000, -66.404
 956.6000, -66.727
 956.8000, -66.582
 957.0000, -66.393
 957.2000, -66.486
 957.4000, -66.608
 957.6000, -66.778
 957.8000, -66.898
 958.0000, -66.647
 958.2000, -66.398
 958.4000, -66.570
 958.6000, -66.613
 958.8000, -66.351
 959.0000, -66.532
 959.2000, -66.804
 959.4000, -66.310
 959.6000, -66.581
 959.8000, -66.550
 960.0000, -66.491
 960.2000, -66.606
 960.4000, -66.697
 960.6000, -66.555
 960.8000, -66.450
 961.0000, -66.491
 961.2000, -66.600
 961.4000, -66.565
 961.6000, -66.555
 961.8000, -66.346
 962.0000, -66.295
 962.2000, -66.381
 962.4000, -66.466
 962.6000, -66.432
 962.8000, -66.280
 963.0000, -66.544
 963.2000, -66.634
 963.4000, -66.466
 963.6000, -66.270
 963.8000, -66.398
 964.0000, -66.418
 964.2000, -66.436
 964.4000, -66.306
 964.6000, -66.373
 964.8000, -66.448
 965.0000, -66.300
 965.2000, -66.396
 965.4000, -66.552
 965.6000, -66.470
 965.8000, -66.536
 966.0000, -66.432
 966.2000, -66.497
 966.4000, -66.535
 966.6000, -66.558
 966.8000, -66.591
 967.0000, -66.464
 967.2000, -66.375
 967.4000, -66.558
 967.6000, -66.608
 967.8000, -66.398
 968.0000, -66.618
 968.2000, -66.603
 968.4000, -66.475
 968.6000, -66.359
 968.8000, -66.600
 969.0000, -66.645
 969.2000, -66.537
 969.4000, -66.522
 969.6000, -66.718
 969.8000, -66.743
 970.0000, -66.436
 970.2000, -66.568
 970.4000, -66.686
 970.6000, -66.682
 970.8000, -66.638
 971.0000, -66.537
 971.2000, -66.821
 971.4000, -66.541
 971.6000, -66.465
 971.8000, -66.603
 972.0000, -66.652
 972.2000, -66.732
 972.4000, -66.533
 972.6000, -66.697
 972.8000, -66.811
 973.0000, -66.684
 973.2000, -66.727
 973.4000, -66.695
 973.6000, -66.818
 973.8000, -66.696
 974.0000, -66.719
 974.2000, -66.968
 974.4000, -66.945
 974.6000, -66.758
 974.8000, -66.887
 975.0000, -66.912
 975.2000, -67.044
 975.4000, -67.119
 975.6000, -67.118
 975.8000, -66.957
 976.0000, -67.222
 976.2000, -67.136
 976.4000, -67.093
 976.6000, -67.060
 976.8000, -67.274
 977.0000, -67.180
 977.2000, -67.054
 977.4000, -67.012
 977.6000, -67.220
 977.8000, -67.301
 978.0000, -66.969
 978.2000, -67.256
 978.4000, -67.280
 978.6000, -67.289
 978.8000, -67.402
 979.0000, -67.143
 979.2000, -67.397
 979.4000, -67.556
 979.6000, -67.515
 979.8000, -67.299
 980.0000, -67.554
 980.2000, -67.499
 980.4000, -67.381
 980.6000, -67.304
 980.8000, -67.214
 981.0000, -67.411
 981.2000, -67.500
 981.4000, -67.411
 981.6000, -67.253
 981.8000, -67.290
 982.0000, -67.451
 982.2000, -67.341
 982.4000, -67.504
 982.6000, -67.054
 982.8000, -67.548
 983.0000, -67.085
 983.2000, -67.091
 983.4000, -67.121
 983.6000, -67.170
 983.8000, -66.819
 984.0000, -67.058
 984.2000, -66.984
 984.4000, -66.886
 984.6000, -66.873
 984.8000, -66.982
 985.0000, -66.918
 985.2000, -67.157
 985.4000, -66.678
 985.6000, -66.924
 985.8000, -67.073
 986.0000, -66.997
 986.2000, -66.781
 986.4000, -67.183
 986.6000, -66.991
 986.8000, -66.927
 987.0000, -67.123
 987.2000, -67.102
 987.4000, -66.830
 987.6000, -66.954
 987.8000, -66.894
 988.0000, -66.837
 988.2000, -66.956
 988.4000, -66.725
 988.6000, -66.628
 988.8000, -66.779
 989.0000, -66.789
 989.2000, -66.701
 989.4000, -66.684
 989.6000, -66.710
 989.8000, -66.687
 990.0000, -66.770
 990.2000, -66.610
 990.4000, -66.745
 990.6000, -66.801
 990.8000, -66.717
 991.0000, -66.828
 991.2000, -66.663
 991.4000, -66.777
 991.6000, -66.563
 991.8000, -66.721
 992.0000, -66.851
 992.2000, -66.807
 992.4000, -66.608
 992.6000, -66.651
 992.8000, -66.780
 993.0000, -66.654
 993.2000, -66.794
 993.4000, -66.644
 993.6000, -66.770
 993.8000, -66.749
 994.0000, -66.577
 994.2000, -66.479
 994.4000, -66.933
 994.6000, -66.664
 994.8000, -66.853
 995.0000, -66.822
 995.2000, -66.821
 995.4000, -66.677
 995.6000, -66.904
 995.8000, -66.859
 996.0000, -66.779
 996.2000, -66.813
 996.4000, -66.769
 996.6000, -66.820
 996.8000, -66.731
 997.0000, -66.811
 997.2000, -66.845
 997.4000, -66.738
 997.6000, -66.803
 997.8000, -66.675
 998.0000, -66.926
 998.2000, -67.186
 998.4000, -67.249
 998.6000, -67.090
 998.8000, -67.058
 999.0000, -66.990
 999.2000, -67.104
 999.4000, -67.143
 999.6000, -67.149
 999.8000, -67.100
1000.0000, -66.996
1000.2000, -66.892
1000.4000, -66.895
1000.6000, -67.075
1000.8000, -66.940
1001.0000, -66.922
1001.2000, -66.931
1001.4000, -66.861
1001.6000, -67.023
1001.8000, -66.897
1002.0000, -66.850
1002.2000, -66.972
1002.4000, -67.196
1002.6000, -66.942
1002.8000, -66.696
1003.0000, -66.820
1003.2000, -67.011
1003.4000, -66.801
1003.6000, -66.685
1003.8000, -67.009
1004.0000, -67.035
1004.2000, -66.782
1004.4000, -66.789
1004.6000, -66.741
1004.8000, -66.837
1005.0000, -66.949
1005.2000, -66.799
1005.4000, -67.093
1005.6000, -66.973
1005.8000, -67.301
1006.0000, -66.957
1006.2000, -67.118
1006.4000, -67.094
1006.6000, -67.102
1006.8000, -66.955
1007.0000, -67.273
1007.2000, -67.295
1007.4000, -67.578
1007.6000, -67.223
1007.8000, -67.139
1008.0000, -67.372
1008.2000, -67.458
1008.4000, -67.312
1008.6000, -67.340
1008.8000, -67.596
1009.0000, -67.562
1009.2000, -67.483
1009.4000, -67.833
1009.6000, -67.922
1009.8000, -68.006
1010.0000, -68.039
1010.2000, -68.021
1010.4000, -68.395
1010.6000, -68.219
1010.8000, -68.634
1011.0000, -68.300
1011.2000, -68.292
1011.4000, -68.192
1011.6000, -68.207
1011.8000, -68.218
1012.0000, -68.098
1012.2000, -68.093
1012.4000, -68.102
1012.6000, -68.104
1012.8000, -67.958
1013.0000, -68.001
1013.2000, -67.897
1013.4000, -68.006
1013.6000, -67.882
1013.8000, -67.807
1014.0000, -68.086
1014.2000, -68.025
1014.4000, -68.091
1014.6000, -67.968
1014.8000, -67.718
1015.0000, -67.665
1015.2000, -67.923
1015.4000, -67.555
1015.6000, -67.678
1015.8000, -67.728
1016.0000, -67.577
1016.2000, -67.648
1016.4000, -67.667
1016.6000, -67.589
1016.8000, -67.423
1017.0000, -67.406
1017.2000, -67.232
1017.4000, -67.768
1017.6000, -67.328
1017.8000, -67.265
1018.0000, -67.382
1018.2000, -67.193
1018.4000, -67.347
1018.6000, -67.137
1018.8000, -66.963
1019.0000, -66.927
1019.2000, -66.972
1019.4000, -66.874
1019.6000, -66.777
1019.8000, -66.578
1020.0000, -66.606
1020.2000, -66.634
1020.4000, -66.748
1020.6000, -66.599
1020.8000, -66.484
1021.0000, -66.427
1021.2000, -66.076
1021.4000, -66.166
1021.6000, -66.494
1021.8000, -66.174
1022.0000, -66.366
1022.2000, -66.108
1022.4000, -66.209
1022.6000, -66.077
1022.8000, -66.060
1023.0000, -65.994
1023.2000, -65.970
1023.4000, -65.955
1023.6000, -65.764
1023.8000, -65.821
1024.0000, -65.708
1024.2000, -65.581
1024.4000, -65.808
1024.6000, -65.419
1024.8000, -65.590
1025.0000, -65.582
1025.2000, -65.456
1025.4000, -65.503
1025.6000, -65.226
1025.8000, -65.223
1026.0000, -65.331
1026.2000, -65.394
1026.4000, -65.297
1026.6000, -65.276
1026.8000, -65.242
1027.0000, -65.077
1027.2000, -64.959
1027.4000, -64.938
1027.6000, -64.904
1027.8000, -65.094
1028.0000, -64.968
1028.2000, -64.649
1028.4000, -64.773
1028.6000, -64.636
1028.8000, -64.521
1029.0000, -64.546
1029.2000, -64.596
1029.4000, -64.305
1029.6000, -64.406
1029.8000, -64.552
1030.0000, -64.507
1030.2000, -64.313
1030.4000, -64.384
1030.6000, -64.470
1030.8000, -64.493
1031.0000, -64.226
1031.2000, -64.206
1031.4000, -64.077
1031.6000, -64.223
1031.8000, -64.175
1032.0000, -64.201
1032.2000, -64.182
1032.4000, -64.184
1032.6000, -63.870
1032.8000, -64.079
1033.0000, -63.976
1033.2000, -63.916
1033.4000, -63.820
1033.6000, -63.808
1033.8000, -63.750
1034.0000, -63.839
1034.2000, -63.671
1034.4000, -63.765
1034.6000, -63.699
1034.8000, -63.684
1035.0000, -63.452
1035.2000, -63.549
1035.4000, -63.479
1035.6000, -63.323
1035.8000, -63.670
1036.0000, -63.519
1036.2000, -63.652
1036.4000, -63.535
1036.6000, -63.384
1036.8000, -63.488
1037.0000, -63.493
1037.2000, -63.491
1037.4000, -63.437
1037.6000, -63.473
1037.8000, -63.364
1038.0000, -63.548
1038.2000, -63.463
1038.4000, -63.578
1038.6000, -63.409
1038.8000, -63.381
1039.0000, -63.514
1039.2000, -63.482
1039.4000, -63.568
1039.6000, -63.461
1039.8000, -63.638
1040.0000, -63.611
1040.2000, -63.603
1040.4000, -63.678
1040.6000, -63.710
1040.8000, -63.585
1041.0000, -63.615
1041.2000, -63.652
1041.4000, -63.744
1041.6000, -63.791
1041.8000, -63.761
1042.0000, -63.801
1042.2000, -63.775
1042.4000, -63.685
1042.6000, -63.799
1042.8000, -63.620
1043.0000, -63.790
1043.2000, -63.689
1043.4000, -63.890
1043.6000, -63.776
1043.8000, -63.692
1044.0000, -63.780
1044.2000, -63.726
1044.4000, -63.665
1044.6000, -63.586
1044.8000, -63.757
1045.0000, -63.600
1045.2000, -63.665
1045.4000, -63.532
1045.6000, -63.748
1045.8000, -63.641
1046.0000, -63.558
1046.2000, -63.468
1046.4000, -63.463
1046.6000, -63.486
1046.8000, -63.220
1047.0000, -63.360
1047.2000, -63.172
1047.4000, -63.337
1047.6000, -62.901
1047.8000, -62.767
1048.0000, -62.738
1048.2000, -62.732
1048.4000, -62.391
1048.6000, -62.334
1048.8000, -62.308
1049.0000, -61.900
1049.2000, -61.691
1049.4000, -61.689
1049.6000, -61.705
1049.8000, -61.476
1050.0000, -61.563
1050.2000, -61.328
1050.4000, -61.359
1050.6000, -61.028
1050.8000, -61.382
1051.0000, -61.358
1051.2000, -61.345
1051.4000, -61.384
1051.6000, -61.468
1051.8000, -61.411
1052.0000, -61.348
1052.2000, -61.726
1052.4000, -61.694
1052.6000, -61.836
1052.8000, -61.775
1053.0000, -61.977
1053.2000, -62.015
1053.4000, -62.208
1053.6000, -62.372
1053.8000, -62.338
1054.0000, -62.416
1054.2000, -62.442
1054.4000, -62.793
1054.6000, -62.601
1054.8000, -62.720
1055.0000, -62.707
1055.2000, -62.917
1055.4000, -63.000
1055.6000, -63.030
1055.8000, -63.014
1056.0000, -63.040
1056.2000, -63.090
1056.4000, -63.036
1056.6000, -63.114
1056.8000, -63.188
1057.0000, -63.365
1057.2000, -63.144
1057.4000, -63.108
1057.6000, -63.103
1057.8000, -63.261
1058.0000, -63.163
1058.2000, -63.098
1058.4000, -62.907
1058.6000, -62.945
1058.8000, -62.963
1059.0000, -62.769
1059.2000, -62.792
1059.4000, -62.742
1059.6000, -62.735
1059.8000, -62.335
1060.0000, -62.474
1060.2000, -62.373
1060.4000, -62.065
1060.6000, -61.809
1060.8000, -61.810
1061.0000, -61.811
1061.2000, -61.652
1061.4000, -61.642
1061.6000, -61.554
1061.8000, -61.302
1062.0000, -61.430
1062.2000, -61.055
1062.4000, -60.835
1062.6000, -60.544
1062.8000, -60.444
1063.0000, -59.943
1063.2000, -59.777
1063.4000, -59.335
1063.6000, -56.684
1063.8000, -40.877
1064.0000, -38.633
