74CSV  	
// AQ6374 OPTICAL SPECTRUM ANALYZER //                  
35
"CTRWL",1125.000000
"SPAN",1150.000000
"START WL", 550.000000
"STOP WL",1700.000000
"WLFREQ", 0
"REFL",-49.0
"LSCL", 5.0
"RESLN",2.000
"AVG",   1
"SMPLAUTO",      1
"SMPL",       2876
"SMPLINTVL",0.4000
"HIGH1"
"MEAS"
"LSUNT",0
"NMSKH","OFF"
"RESCOR",0
"SMOOTH",0
"MEASWL",1
"SWPSPD",0
"MODELNAME","AQ6374"
"CHGPT",         52
"RESCAL0_0",      10019
"RESCAL0_1",      -1240
"RESCAL0_2",    1921719
"RESCAL1_0",      10084
"RESCAL1_1",          0
"RESCAL1_2",          0
"CORESIZE", 0






"[TRACE DATA]"
 550.0000, -79.576
 550.4000, -72.014
 550.8000,-210.000
 551.2000,-210.000
 551.6000,-210.000
 552.0000,-210.000
 552.4000, -74.240
 552.8000, -80.753
 553.2000,-210.000
 553.6000, -71.274
 554.0000, -87.917
 554.4000,-210.000
 554.8000, -79.350
 555.2000, -78.980
 555.6000, -70.850
 556.0000,-210.000
 556.4000,-210.000
 556.8000,-210.000
 557.2000,-210.000
 557.6000, -73.702
 558.0000,-210.000
 558.4000,-210.000
 558.8000,-210.000
 559.2000,-210.000
 559.6000, -69.461
 560.0000, -66.999
 560.4000,-210.000
 560.8000, -83.695
 561.2000,-210.000
 561.6000,-210.000
 562.0000, -73.035
 562.4000, -75.008
 562.8000, -71.544
 563.2000, -72.301
 563.6000,-210.000
 564.0000,-210.000
 564.4000,-210.000
 564.8000, -71.257
 565.2000, -72.971
 565.6000,-210.000
 566.0000, -83.297
 566.4000, -68.090
 566.8000,-210.000
 567.2000,-210.000
 567.6000, -68.129
 568.0000, -69.855
 568.4000,-210.000
 568.8000,-210.000
 569.2000, -72.607
 569.6000,-210.000
 570.0000, -69.112
 570.4000, -86.730
 570.8000,-210.000
 571.2000, -70.734
 571.6000, -79.566
 572.0000,-210.000
 572.4000, -74.798
 572.8000, -72.985
 573.2000,-210.000
 573.6000, -79.740
 574.0000, -76.622
 574.4000, -72.315
 574.8000, -77.623
 575.2000, -79.250
 575.6000,-210.000
 576.0000, -75.516
 576.4000, -75.524
 576.8000,-210.000
 577.2000, -73.019
 577.6000,-210.000
 578.0000,-210.000
 578.4000,-210.000
 578.8000,-210.000
 579.2000,-210.000
 579.6000, -83.540
 580.0000, -76.496
 580.4000,-210.000
 580.8000,-210.000
 581.2000, -77.914
 581.6000, -78.390
 582.0000, -79.437
 582.4000, -75.931
 582.8000, -73.032
 583.2000,-210.000
 583.6000,-210.000
 584.0000, -74.532
 584.4000,-210.000
 584.8000,-210.000
 585.2000,-210.000
 585.6000,-210.000
 586.0000, -75.405
 586.4000, -78.922
 586.8000, -73.616
 587.2000, -88.358
 587.6000,-210.000
 588.0000, -72.763
 588.4000, -69.121
 588.8000, -74.936
 589.2000, -79.283
 589.6000,-210.000
 590.0000, -71.325
 590.4000, -71.145
 590.8000, -90.130
 591.2000, -72.669
 591.6000, -72.104
 592.0000,-210.000
 592.4000, -70.289
 592.8000, -76.515
 593.2000, -81.130
 593.6000, -83.768
 594.0000, -73.434
 594.4000, -84.865
 594.8000, -70.920
 595.2000, -71.909
 595.6000, -72.782
 596.0000, -73.590
 596.4000, -72.007
 596.8000, -72.981
 597.2000, -87.712
 597.6000, -75.480
 598.0000,-210.000
 598.4000, -77.980
 598.8000, -71.417
 599.2000,-210.000
 599.6000, -81.915
 600.0000, -72.938
 600.4000, -76.380
 600.8000, -68.623
 601.2000, -73.978
 601.6000, -73.121
 602.0000, -73.539
 602.4000, -83.280
 602.8000, -76.013
 603.2000, -72.935
 603.6000, -71.040
 604.0000, -72.374
 604.4000, -70.176
 604.8000, -73.500
 605.2000, -72.433
 605.6000, -74.855
 606.0000, -82.637
 606.4000, -76.341
 606.8000, -70.159
 607.2000, -68.003
 607.6000, -69.848
 608.0000, -70.116
 608.4000, -71.126
 608.8000, -70.117
 609.2000, -69.901
 609.6000, -74.040
 610.0000, -69.263
 610.4000, -70.972
 610.8000, -70.187
 611.2000, -70.468
 611.6000, -69.800
 612.0000, -69.013
 612.4000, -69.259
 612.8000, -69.038
 613.2000, -70.748
 613.6000, -68.831
 614.0000, -69.539
 614.4000, -68.903
 614.8000, -67.912
 615.2000, -68.331
 615.6000, -67.244
 616.0000, -68.740
 616.4000, -71.572
 616.8000, -68.995
 617.2000, -68.418
 617.6000, -68.814
 618.0000, -66.904
 618.4000, -67.918
 618.8000, -67.108
 619.2000, -67.236
 619.6000, -65.772
 620.0000, -65.408
 620.4000, -67.477
 620.8000, -66.492
 621.2000, -66.340
 621.6000, -66.158
 622.0000, -65.940
 622.4000, -65.678
 622.8000, -65.961
 623.2000, -66.055
 623.6000, -65.685
 624.0000, -65.602
 624.4000, -65.670
 624.8000, -65.649
 625.2000, -64.764
 625.6000, -64.376
 626.0000, -64.396
 626.4000, -65.118
 626.8000, -64.563
 627.2000, -64.138
 627.6000, -64.167
 628.0000, -64.044
 628.4000, -64.022
 628.8000, -64.189
 629.2000, -64.348
 629.6000, -63.465
 630.0000, -63.816
 630.4000, -63.589
 630.8000, -63.396
 631.2000, -63.430
 631.6000, -62.958
 632.0000, -63.212
 632.4000, -63.142
 632.8000, -63.073
 633.2000, -62.922
 633.6000, -62.905
 634.0000, -62.529
 634.4000, -62.972
 634.8000, -62.488
 635.2000, -62.517
 635.6000, -62.329
 636.0000, -62.348
 636.4000, -62.440
 636.8000, -62.229
 637.2000, -61.963
 637.6000, -61.866
 638.0000, -62.091
 638.4000, -61.690
 638.8000, -61.719
 639.2000, -61.874
 639.6000, -61.721
 640.0000, -61.585
 640.4000, -61.525
 640.8000, -61.551
 641.2000, -61.443
 641.6000, -61.537
 642.0000, -61.409
 642.4000, -61.371
 642.8000, -61.106
 643.2000, -61.222
 643.6000, -61.366
 644.0000, -61.107
 644.4000, -60.960
 644.8000, -60.787
 645.2000, -60.945
 645.6000, -60.829
 646.0000, -60.756
 646.4000, -60.685
 646.8000, -60.809
 647.2000, -60.555
 647.6000, -60.778
 648.0000, -60.379
 648.4000, -60.519
 648.8000, -60.455
 649.2000, -60.530
 649.6000, -60.189
 650.0000, -60.212
 650.4000, -60.318
 650.8000, -60.238
 651.2000, -60.327
 651.6000, -60.186
 652.0000, -60.164
 652.4000, -60.104
 652.8000, -60.035
 653.2000, -59.889
 653.6000, -59.948
 654.0000, -59.950
 654.4000, -60.028
 654.8000, -59.985
 655.2000, -59.994
 655.6000, -59.732
 656.0000, -59.767
 656.4000, -59.841
 656.8000, -59.907
 657.2000, -59.746
 657.6000, -59.673
 658.0000, -59.743
 658.4000, -59.518
 658.8000, -59.693
 659.2000, -59.499
 659.6000, -59.540
 660.0000, -59.308
 660.4000, -59.448
 660.8000, -59.458
 661.2000, -59.351
 661.6000, -59.450
 662.0000, -59.409
 662.4000, -59.353
 662.8000, -59.169
 663.2000, -59.274
 663.6000, -59.348
 664.0000, -59.181
 664.4000, -59.121
 664.8000, -59.196
 665.2000, -59.007
 665.6000, -59.040
 666.0000, -59.064
 666.4000, -58.998
 666.8000, -59.120
 667.2000, -58.954
 667.6000, -59.051
 668.0000, -58.911
 668.4000, -59.050
 668.8000, -58.924
 669.2000, -58.869
 669.6000, -59.014
 670.0000, -58.870
 670.4000, -58.993
 670.8000, -58.815
 671.2000, -58.872
 671.6000, -58.848
 672.0000, -58.880
 672.4000, -58.943
 672.8000, -58.871
 673.2000, -58.784
 673.6000, -58.789
 674.0000, -58.791
 674.4000, -58.893
 674.8000, -58.801
 675.2000, -58.848
 675.6000, -58.769
 676.0000, -58.782
 676.4000, -58.879
 676.8000, -58.811
 677.2000, -58.863
 677.6000, -58.782
 678.0000, -58.899
 678.4000, -58.799
 678.8000, -58.849
 679.2000, -58.729
 679.6000, -58.802
 680.0000, -58.841
 680.4000, -58.843
 680.8000, -58.936
 681.2000, -58.907
 681.6000, -59.006
 682.0000, -58.800
 682.4000, -58.877
 682.8000, -58.865
 683.2000, -58.794
 683.6000, -58.899
 684.0000, -58.909
 684.4000, -58.798
 684.8000, -58.762
 685.2000, -58.903
 685.6000, -58.745
 686.0000, -58.955
 686.4000, -58.833
 686.8000, -59.009
 687.2000, -58.904
 687.6000, -58.996
 688.0000, -58.946
 688.4000, -59.095
 688.8000, -59.037
 689.2000, -59.065
 689.6000, -59.010
 690.0000, -59.089
 690.4000, -59.147
 690.8000, -58.971
 691.2000, -59.156
 691.6000, -59.103
 692.0000, -59.319
 692.4000, -59.128
 692.8000, -59.100
 693.2000, -59.134
 693.6000, -59.208
 694.0000, -59.227
 694.4000, -59.156
 694.8000, -59.416
 695.2000, -59.340
 695.6000, -59.475
 696.0000, -59.316
 696.4000, -59.360
 696.8000, -59.390
 697.2000, -59.364
 697.6000, -59.495
 698.0000, -59.354
 698.4000, -59.495
 698.8000, -59.676
 699.2000, -59.494
 699.6000, -59.596
 700.0000, -59.569
 700.4000, -59.585
 700.8000, -59.595
 701.2000, -59.667
 701.6000, -59.668
 702.0000, -59.630
 702.4000, -59.700
 702.8000, -59.639
 703.2000, -59.756
 703.6000, -59.591
 704.0000, -59.793
 704.4000, -59.919
 704.8000, -59.724
 705.2000, -59.872
 705.6000, -59.763
 706.0000, -59.983
 706.4000, -60.053
 706.8000, -60.018
 707.2000, -60.150
 707.6000, -59.985
 708.0000, -59.942
 708.4000, -59.989
 708.8000, -60.012
 709.2000, -59.943
 709.6000, -60.065
 710.0000, -60.163
 710.4000, -60.228
 710.8000, -60.179
 711.2000, -60.207
 711.6000, -60.211
 712.0000, -59.984
 712.4000, -60.291
 712.8000, -60.240
 713.2000, -60.301
 713.6000, -60.410
 714.0000, -60.260
 714.4000, -60.189
 714.8000, -60.260
 715.2000, -60.205
 715.6000, -60.419
 716.0000, -60.386
 716.4000, -60.326
 716.8000, -60.282
 717.2000, -60.355
 717.6000, -60.341
 718.0000, -60.506
 718.4000, -60.602
 718.8000, -60.523
 719.2000, -60.384
 719.6000, -60.511
 720.0000, -60.673
 720.4000, -60.495
 720.8000, -60.501
 721.2000, -60.595
 721.6000, -60.646
 722.0000, -60.707
 722.4000, -60.530
 722.8000, -60.635
 723.2000, -60.482
 723.6000, -60.654
 724.0000, -60.482
 724.4000, -60.638
 724.8000, -60.747
 725.2000, -60.511
 725.6000, -60.773
 726.0000, -60.668
 726.4000, -60.742
 726.8000, -60.675
 727.2000, -60.780
 727.6000, -60.621
 728.0000, -60.912
 728.4000, -60.651
 728.8000, -60.874
 729.2000, -60.770
 729.6000, -60.738
 730.0000, -60.832
 730.4000, -60.798
 730.8000, -60.820
 731.2000, -60.794
 731.6000, -60.675
 732.0000, -60.809
 732.4000, -60.829
 732.8000, -60.828
 733.2000, -60.904
 733.6000, -60.879
 734.0000, -61.063
 734.4000, -61.005
 734.8000, -60.903
 735.2000, -60.821
 735.6000, -60.961
 736.0000, -60.906
 736.4000, -61.093
 736.8000, -61.113
 737.2000, -60.939
 737.6000, -61.048
 738.0000, -61.002
 738.4000, -60.998
 738.8000, -61.132
 739.2000, -61.096
 739.6000, -61.030
 740.0000, -61.057
 740.4000, -61.029
 740.8000, -61.241
 741.2000, -61.225
 741.6000, -61.070
 742.0000, -61.145
 742.4000, -61.240
 742.8000, -61.178
 743.2000, -61.184
 743.6000, -61.286
 744.0000, -61.237
 744.4000, -61.114
 744.8000, -61.147
 745.2000, -61.238
 745.6000, -61.393
 746.0000, -61.417
 746.4000, -61.371
 746.8000, -61.428
 747.2000, -61.484
 747.6000, -61.489
 748.0000, -61.573
 748.4000, -61.506
 748.8000, -61.437
 749.2000, -61.492
 749.6000, -61.355
 750.0000, -61.462
 750.4000, -61.498
 750.8000, -61.400
 751.2000, -61.375
 751.6000, -61.341
 752.0000, -61.562
 752.4000, -61.595
 752.8000, -61.560
 753.2000, -61.530
 753.6000, -61.603
 754.0000, -61.702
 754.4000, -61.704
 754.8000, -61.796
 755.2000, -61.813
 755.6000, -61.851
 756.0000, -61.786
 756.4000, -61.905
 756.8000, -61.834
 757.2000, -61.810
 757.6000, -61.826
 758.0000, -61.912
 758.4000, -61.855
 758.8000, -61.944
 759.2000, -62.108
 759.6000, -62.076
 760.0000, -61.958
 760.4000, -62.002
 760.8000, -61.891
 761.2000, -62.135
 761.6000, -62.157
 762.0000, -62.015
 762.4000, -62.000
 762.8000, -61.997
 763.2000, -62.219
 763.6000, -62.156
 764.0000, -62.158
 764.4000, -62.289
 764.8000, -62.226
 765.2000, -62.140
 765.6000, -62.121
 766.0000, -62.131
 766.4000, -62.184
 766.8000, -62.274
 767.2000, -62.421
 767.6000, -62.305
 768.0000, -62.367
 768.4000, -62.556
 768.8000, -62.546
 769.2000, -62.527
 769.6000, -62.631
 770.0000, -62.290
 770.4000, -62.691
 770.8000, -62.515
 771.2000, -62.558
 771.6000, -62.574
 772.0000, -62.557
 772.4000, -62.486
 772.8000, -62.781
 773.2000, -62.731
 773.6000, -62.442
 774.0000, -62.957
 774.4000, -62.775
 774.8000, -62.726
 775.2000, -63.090
 775.6000, -62.853
 776.0000, -62.669
 776.4000, -62.620
 776.8000, -62.784
 777.2000, -62.921
 777.6000, -62.804
 778.0000, -62.864
 778.4000, -62.972
 778.8000, -62.907
 779.2000, -62.944
 779.6000, -62.875
 780.0000, -62.976
 780.4000, -62.840
 780.8000, -63.055
 781.2000, -62.839
 781.6000, -62.892
 782.0000, -63.046
 782.4000, -62.732
 782.8000, -63.048
 783.2000, -62.989
 783.6000, -62.973
 784.0000, -63.215
 784.4000, -62.966
 784.8000, -63.233
 785.2000, -63.232
 785.6000, -63.193
 786.0000, -63.162
 786.4000, -63.042
 786.8000, -63.083
 787.2000, -63.435
 787.6000, -63.242
 788.0000, -63.189
 788.4000, -63.210
 788.8000, -63.247
 789.2000, -63.337
 789.6000, -63.271
 790.0000, -63.283
 790.4000, -63.216
 790.8000, -63.400
 791.2000, -63.334
 791.6000, -63.390
 792.0000, -63.381
 792.4000, -63.382
 792.8000, -63.275
 793.2000, -63.526
 793.6000, -63.353
 794.0000, -63.364
 794.4000, -63.214
 794.8000, -63.423
 795.2000, -63.421
 795.6000, -63.403
 796.0000, -63.387
 796.4000, -63.299
 796.8000, -63.537
 797.2000, -63.381
 797.6000, -63.458
 798.0000, -63.470
 798.4000, -63.272
 798.8000, -63.550
 799.2000, -63.492
 799.6000, -63.438
 800.0000, -63.392
 800.4000, -63.521
 800.8000, -63.489
 801.2000, -63.615
 801.6000, -63.735
 802.0000, -63.628
 802.4000, -63.520
 802.8000, -63.624
 803.2000, -63.819
 803.6000, -63.614
 804.0000, -63.492
 804.4000, -63.641
 804.8000, -63.459
 805.2000, -63.838
 805.6000, -63.814
 806.0000, -63.775
 806.4000, -63.634
 806.8000, -63.950
 807.2000, -63.422
 807.6000, -63.524
 808.0000, -63.708
 808.4000, -63.693
 808.8000, -63.663
 809.2000, -63.625
 809.6000, -63.810
 810.0000, -63.587
 810.4000, -63.740
 810.8000, -63.699
 811.2000, -63.863
 811.6000, -63.799
 812.0000, -63.922
 812.4000, -63.771
 812.8000, -63.667
 813.2000, -63.719
 813.6000, -63.834
 814.0000, -63.664
 814.4000, -63.649
 814.8000, -63.682
 815.2000, -63.739
 815.6000, -63.871
 816.0000, -63.699
 816.4000, -63.715
 816.8000, -63.800
 817.2000, -63.799
 817.6000, -63.856
 818.0000, -63.591
 818.4000, -63.707
 818.8000, -63.758
 819.2000, -63.736
 819.6000, -63.880
 820.0000, -63.917
 820.4000, -63.890
 820.8000, -63.567
 821.2000, -63.550
 821.6000, -63.765
 822.0000, -63.836
 822.4000, -63.855
 822.8000, -64.141
 823.2000, -63.876
 823.6000, -63.784
 824.0000, -63.621
 824.4000, -63.715
 824.8000, -63.622
 825.2000, -63.640
 825.6000, -64.054
 826.0000, -63.785
 826.4000, -63.805
 826.8000, -63.845
 827.2000, -63.748
 827.6000, -63.857
 828.0000, -63.807
 828.4000, -63.870
 828.8000, -64.015
 829.2000, -63.766
 829.6000, -64.053
 830.0000, -63.830
 830.4000, -63.987
 830.8000, -64.002
 831.2000, -63.864
 831.6000, -63.987
 832.0000, -63.713
 832.4000, -64.187
 832.8000, -63.757
 833.2000, -63.845
 833.6000, -63.939
 834.0000, -64.188
 834.4000, -64.041
 834.8000, -64.131
 835.2000, -63.889
 835.6000, -64.117
 836.0000, -63.870
 836.4000, -63.735
 836.8000, -63.786
 837.2000, -63.975
 837.6000, -63.963
 838.0000, -63.892
 838.4000, -63.986
 838.8000, -63.973
 839.2000, -64.284
 839.6000, -63.969
 840.0000, -64.119
 840.4000, -63.959
 840.8000, -63.835
 841.2000, -64.149
 841.6000, -63.938
 842.0000, -64.378
 842.4000, -64.032
 842.8000, -64.126
 843.2000, -64.073
 843.6000, -64.062
 844.0000, -64.223
 844.4000, -64.145
 844.8000, -64.227
 845.2000, -64.339
 845.6000, -64.332
 846.0000, -64.143
 846.4000, -63.894
 846.8000, -64.068
 847.2000, -63.831
 847.6000, -64.339
 848.0000, -64.014
 848.4000, -64.082
 848.8000, -64.353
 849.2000, -64.367
 849.6000, -64.165
 850.0000, -64.057
 850.4000, -64.053
 850.8000, -64.141
 851.2000, -64.145
 851.6000, -64.140
 852.0000, -64.311
 852.4000, -64.047
 852.8000, -64.134
 853.2000, -64.019
 853.6000, -64.085
 854.0000, -64.136
 854.4000, -64.166
 854.8000, -63.939
 855.2000, -64.444
 855.6000, -64.106
 856.0000, -64.020
 856.4000, -64.088
 856.8000, -64.155
 857.2000, -64.298
 857.6000, -64.336
 858.0000, -64.030
 858.4000, -64.371
 858.8000, -64.099
 859.2000, -64.116
 859.6000, -64.099
 860.0000, -64.291
 860.4000, -64.198
 860.8000, -64.234
 861.2000, -64.200
 861.6000, -64.092
 862.0000, -64.107
 862.4000, -64.254
 862.8000, -64.333
 863.2000, -64.184
 863.6000, -64.176
 864.0000, -63.875
 864.4000, -64.318
 864.8000, -64.146
 865.2000, -64.381
 865.6000, -64.148
 866.0000, -64.153
 866.4000, -64.395
 866.8000, -64.423
 867.2000, -64.348
 867.6000, -64.233
 868.0000, -64.125
 868.4000, -64.096
 868.8000, -63.957
 869.2000, -64.219
 869.6000, -64.185
 870.0000, -63.895
 870.4000, -64.210
 870.8000, -64.282
 871.2000, -64.248
 871.6000, -64.310
 872.0000, -64.080
 872.4000, -64.378
 872.8000, -64.297
 873.2000, -64.160
 873.6000, -64.120
 874.0000, -64.084
 874.4000, -64.205
 874.8000, -64.142
 875.2000, -64.252
 875.6000, -64.161
 876.0000, -64.176
 876.4000, -63.992
 876.8000, -64.061
 877.2000, -64.076
 877.6000, -64.054
 878.0000, -64.081
 878.4000, -64.075
 878.8000, -63.981
 879.2000, -64.126
 879.6000, -63.977
 880.0000, -63.975
 880.4000, -64.050
 880.8000, -64.183
 881.2000, -63.951
 881.6000, -63.950
 882.0000, -64.000
 882.4000, -63.989
 882.8000, -63.932
 883.2000, -64.185
 883.6000, -63.998
 884.0000, -63.859
 884.4000, -63.920
 884.8000, -63.955
 885.2000, -63.926
 885.6000, -63.948
 886.0000, -63.953
 886.4000, -63.913
 886.8000, -63.865
 887.2000, -63.966
 887.6000, -63.934
 888.0000, -63.870
 888.4000, -63.862
 888.8000, -63.977
 889.2000, -64.022
 889.6000, -64.026
 890.0000, -63.786
 890.4000, -63.828
 890.8000, -63.944
 891.2000, -63.778
 891.6000, -63.718
 892.0000, -63.883
 892.4000, -63.778
 892.8000, -63.707
 893.2000, -63.665
 893.6000, -63.770
 894.0000, -63.696
 894.4000, -63.607
 894.8000, -63.796
 895.2000, -63.716
 895.6000, -63.756
 896.0000, -63.746
 896.4000, -63.761
 896.8000, -63.764
 897.2000, -63.800
 897.6000, -63.631
 898.0000, -63.722
 898.4000, -63.743
 898.8000, -63.909
 899.2000, -63.854
 899.6000, -63.677
 900.0000, -63.717
 900.4000, -63.480
 900.8000, -63.525
 901.2000, -63.557
 901.6000, -63.515
 902.0000, -63.547
 902.4000, -63.385
 902.8000, -63.485
 903.2000, -63.761
 903.6000, -63.804
 904.0000, -63.285
 904.4000, -63.810
 904.8000, -63.660
 905.2000, -63.686
 905.6000, -63.466
 906.0000, -63.230
 906.4000, -63.484
 906.8000, -63.323
 907.2000, -63.474
 907.6000, -63.591
 908.0000, -63.299
 908.4000, -63.786
 908.8000, -63.516
 909.2000, -63.474
 909.6000, -63.374
 910.0000, -63.398
 910.4000, -63.515
 910.8000, -63.618
 911.2000, -63.334
 911.6000, -63.386
 912.0000, -63.262
 912.4000, -63.219
 912.8000, -63.256
 913.2000, -63.193
 913.6000, -63.010
 914.0000, -63.145
 914.4000, -63.151
 914.8000, -63.176
 915.2000, -63.419
 915.6000, -63.158
 916.0000, -63.360
 916.4000, -63.442
 916.8000, -63.186
 917.2000, -63.304
 917.6000, -63.216
 918.0000, -63.186
 918.4000, -63.004
 918.8000, -63.103
 919.2000, -62.921
 919.6000, -63.089
 920.0000, -63.292
 920.4000, -63.045
 920.8000, -63.339
 921.2000, -63.283
 921.6000, -62.976
 922.0000, -63.109
 922.4000, -63.043
 922.8000, -63.211
 923.2000, -63.122
 923.6000, -63.112
 924.0000, -62.941
 924.4000, -63.031
 924.8000, -62.958
 925.2000, -62.951
 925.6000, -63.047
 926.0000, -62.909
 926.4000, -63.135
 926.8000, -63.131
 927.2000, -63.052
 927.6000, -62.985
 928.0000, -63.061
 928.4000, -62.981
 928.8000, -62.800
 929.2000, -63.028
 929.6000, -62.920
 930.0000, -62.920
 930.4000, -62.897
 930.8000, -62.864
 931.2000, -63.110
 931.6000, -62.929
 932.0000, -62.964
 932.4000, -63.018
 932.8000, -62.900
 933.2000, -62.906
 933.6000, -62.931
 934.0000, -62.932
 934.4000, -62.917
 934.8000, -63.101
 935.2000, -63.076
 935.6000, -62.799
 936.0000, -63.004
 936.4000, -62.976
 936.8000, -63.044
 937.2000, -62.985
 937.6000, -63.064
 938.0000, -62.901
 938.4000, -62.968
 938.8000, -62.885
 939.2000, -62.811
 939.6000, -62.977
 940.0000, -62.900
 940.4000, -62.905
 940.8000, -63.105
 941.2000, -62.997
 941.6000, -62.929
 942.0000, -63.001
 942.4000, -63.127
 942.8000, -62.945
 943.2000, -62.908
 943.6000, -63.043
 944.0000, -62.921
 944.4000, -62.927
 944.8000, -62.998
 945.2000, -63.076
 945.6000, -63.050
 946.0000, -62.942
 946.4000, -63.100
 946.8000, -62.985
 947.2000, -62.910
 947.6000, -62.798
 948.0000, -63.064
 948.4000, -62.977
 948.8000, -63.016
 949.2000, -62.995
 949.6000, -62.987
 950.0000, -62.850
 950.4000, -63.021
 950.8000, -63.009
 951.2000, -62.837
 951.6000, -62.980
 952.0000, -62.868
 952.4000, -62.944
 952.8000, -62.856
 953.2000, -63.014
 953.6000, -62.953
 954.0000, -62.944
 954.4000, -63.071
 954.8000, -63.059
 955.2000, -63.141
 955.6000, -63.037
 956.0000, -63.133
 956.4000, -63.072
 956.8000, -63.190
 957.2000, -63.091
 957.6000, -63.168
 958.0000, -63.142
 958.4000, -63.112
 958.8000, -63.100
 959.2000, -63.196
 959.6000, -63.095
 960.0000, -63.027
 960.4000, -63.132
 960.8000, -62.920
 961.2000, -63.017
 961.6000, -62.985
 962.0000, -63.076
 962.4000, -62.996
 962.8000, -63.016
 963.2000, -62.944
 963.6000, -63.053
 964.0000, -62.890
 964.4000, -63.062
 964.8000, -63.021
 965.2000, -62.903
 965.6000, -63.092
 966.0000, -62.994
 966.4000, -62.931
 966.8000, -63.135
 967.2000, -63.173
 967.6000, -63.033
 968.0000, -63.187
 968.4000, -63.048
 968.8000, -63.083
 969.2000, -63.154
 969.6000, -63.214
 970.0000, -63.107
 970.4000, -63.180
 970.8000, -63.250
 971.2000, -63.213
 971.6000, -63.114
 972.0000, -63.335
 972.4000, -63.221
 972.8000, -63.310
 973.2000, -63.351
 973.6000, -63.349
 974.0000, -63.512
 974.4000, -63.567
 974.8000, -63.480
 975.2000, -63.714
 975.6000, -63.689
 976.0000, -63.816
 976.4000, -63.770
 976.8000, -63.869
 977.2000, -63.790
 977.6000, -63.882
 978.0000, -63.876
 978.4000, -63.891
 978.8000, -64.026
 979.2000, -63.876
 979.6000, -63.954
 980.0000, -63.987
 980.4000, -63.941
 980.8000, -64.197
 981.2000, -63.872
 981.6000, -63.950
 982.0000, -63.913
 982.4000, -63.781
 982.8000, -63.692
 983.2000, -63.686
 983.6000, -63.726
 984.0000, -63.642
 984.4000, -63.588
 984.8000, -63.513
 985.2000, -63.572
 985.6000, -63.596
 986.0000, -63.421
 986.4000, -63.462
 986.8000, -63.535
 987.2000, -63.443
 987.6000, -63.318
 988.0000, -63.363
 988.4000, -63.379
 988.8000, -63.409
 989.2000, -63.508
 989.6000, -63.523
 990.0000, -63.392
 990.4000, -63.388
 990.8000, -63.483
 991.2000, -63.417
 991.6000, -63.310
 992.0000, -63.241
 992.4000, -63.369
 992.8000, -63.334
 993.2000, -63.289
 993.6000, -63.270
 994.0000, -63.270
 994.4000, -63.307
 994.8000, -63.277
 995.2000, -63.551
 995.6000, -63.365
 996.0000, -63.431
 996.4000, -63.416
 996.8000, -63.452
 997.2000, -63.542
 997.6000, -63.532
 998.0000, -63.579
 998.4000, -63.531
 998.8000, -63.764
 999.2000, -63.695
 999.6000, -63.725
1000.0000, -63.730
1000.4000, -63.835
1000.8000, -63.713
1001.2000, -63.762
1001.6000, -63.751
1002.0000, -63.841
1002.4000, -63.783
1002.8000, -63.464
1003.2000, -63.569
1003.6000, -63.748
1004.0000, -63.753
1004.4000, -63.726
1004.8000, -63.556
1005.2000, -63.666
1005.6000, -63.809
1006.0000, -63.829
1006.4000, -63.737
1006.8000, -63.887
1007.2000, -63.984
1007.6000, -64.021
1008.0000, -64.221
1008.4000, -64.406
1008.8000, -64.327
1009.2000, -64.495
1009.6000, -64.630
1010.0000, -64.766
1010.4000, -64.791
1010.8000, -65.029
1011.2000, -64.920
1011.6000, -64.914
1012.0000, -65.116
1012.4000, -65.004
1012.8000, -64.923
1013.2000, -64.837
1013.6000, -64.971
1014.0000, -64.752
1014.4000, -64.691
1014.8000, -64.779
1015.2000, -64.553
1015.6000, -64.625
1016.0000, -64.546
1016.4000, -64.493
1016.8000, -64.360
1017.2000, -64.330
1017.6000, -64.248
1018.0000, -63.965
1018.4000, -64.069
1018.8000, -63.902
1019.2000, -63.707
1019.6000, -63.645
1020.0000, -63.570
1020.4000, -63.339
1020.8000, -63.328
1021.2000, -63.253
1021.6000, -63.232
1022.0000, -63.000
1022.4000, -62.894
1022.8000, -62.763
1023.2000, -62.692
1023.6000, -62.609
1024.0000, -62.527
1024.4000, -62.337
1024.8000, -62.315
1025.2000, -62.249
1025.6000, -62.128
1026.0000, -62.004
1026.4000, -62.007
1026.8000, -61.932
1027.2000, -61.786
1027.6000, -61.715
1028.0000, -61.638
1028.4000, -61.613
1028.8000, -61.461
1029.2000, -61.393
1029.6000, -61.331
1030.0000, -61.224
1030.4000, -61.172
1030.8000, -61.080
1031.2000, -60.914
1031.6000, -60.981
1032.0000, -61.062
1032.4000, -60.891
1032.8000, -60.891
1033.2000, -60.730
1033.6000, -60.759
1034.0000, -60.590
1034.4000, -60.609
1034.8000, -60.532
1035.2000, -60.397
1035.6000, -60.449
1036.0000, -60.384
1036.4000, -60.363
1036.8000, -60.361
1037.2000, -60.369
1037.6000, -60.333
1038.0000, -60.336
1038.4000, -60.342
1038.8000, -60.317
1039.2000, -60.422
1039.6000, -60.282
1040.0000, -60.349
1040.4000, -60.450
1040.8000, -60.497
1041.2000, -60.423
1041.6000, -60.544
1042.0000, -60.491
1042.4000, -60.457
1042.8000, -60.541
1043.2000, -60.521
1043.6000, -60.567
1044.0000, -60.559
1044.4000, -60.564
1044.8000, -60.560
1045.2000, -60.508
1045.6000, -60.434
1046.0000, -60.426
1046.4000, -60.288
1046.8000, -60.232
1047.2000, -60.000
1047.6000, -59.692
1048.0000, -59.535
1048.4000, -59.180
1048.8000, -58.799
1049.2000, -58.578
1049.6000, -58.374
1050.0000, -58.091
1050.4000, -57.967
1050.8000, -57.907
1051.2000, -57.833
1051.6000, -57.983
1052.0000, -58.033
1052.4000, -58.141
1052.8000, -58.322
1053.2000, -58.479
1053.6000, -58.777
1054.0000, -58.926
1054.4000, -59.225
1054.8000, -59.529
1055.2000, -59.719
1055.6000, -59.865
1056.0000, -59.885
1056.4000, -60.037
1056.8000, -60.129
1057.2000, -60.093
1057.6000, -60.229
1058.0000, -59.927
1058.4000, -60.044
1058.8000, -59.803
1059.2000, -59.640
1059.6000, -59.589
1060.0000, -59.379
1060.4000, -59.254
1060.8000, -58.860
1061.2000, -58.778
1061.6000, -58.474
1062.0000, -58.249
1062.4000, -58.038
1062.8000, -57.466
1063.2000, -43.752
1063.6000, -36.234
1064.0000, -35.304
1064.4000, -35.362
1064.8000, -35.396
1065.2000, -35.412
1065.6000, -39.653
1066.0000, -57.928
1066.4000, -58.673
1066.8000, -57.862
1067.2000, -58.000
1067.6000, -58.076
1068.0000, -58.036
1068.4000, -58.191
1068.8000, -58.293
1069.2000, -58.422
1069.6000, -58.588
1070.0000, -58.631
1070.4000, -58.554
1070.8000, -58.603
1071.2000, -58.607
1071.6000, -58.533
1072.0000, -58.419
1072.4000, -58.374
1072.8000, -58.335
1073.2000, -58.131
1073.6000, -57.951
1074.0000, -57.722
1074.4000, -57.612
1074.8000, -57.293
1075.2000, -57.100
1075.6000, -56.878
1076.0000, -56.541
1076.4000, -56.290
1076.8000, -56.174
1077.2000, -55.893
1077.6000, -55.781
1078.0000, -55.645
1078.4000, -55.711
1078.8000, -55.550
1079.2000, -55.377
1079.6000, -55.245
1080.0000, -55.329
1080.4000, -55.323
1080.8000, -55.477
1081.2000, -55.334
1081.6000, -55.380
1082.0000, -55.587
1082.4000, -55.892
1082.8000, -56.029
1083.2000, -56.159
1083.6000, -56.319
1084.0000, -56.417
1084.4000, -56.658
1084.8000, -56.768
1085.2000, -56.774
1085.6000, -57.188
1086.0000, -57.365
1086.4000, -57.427
1086.8000, -57.479
1087.2000, -57.382
1087.6000, -57.486
1088.0000, -57.433
1088.4000, -57.563
1088.8000, -57.488
1089.2000, -57.594
1089.6000, -57.559
1090.0000, -57.491
1090.4000, -57.505
1090.8000, -57.497
1091.2000, -57.440
1091.6000, -57.315
1092.0000, -57.143
1092.4000, -57.153
1092.8000, -57.158
1093.2000, -57.097
1093.6000, -57.017
1094.0000, -56.971
1094.4000, -56.789
1094.8000, -56.943
1095.2000, -56.721
1095.6000, -56.696
1096.0000, -56.687
1096.4000, -56.550
1096.8000, -56.495
1097.2000, -56.540
1097.6000, -56.501
1098.0000, -56.336
1098.4000, -56.411
1098.8000, -56.437
1099.2000, -56.366
1099.6000, -56.398
1100.0000, -56.450
1100.4000, -56.409
1100.8000, -56.226
1101.2000, -56.369
1101.6000, -56.285
1102.0000, -56.238
1102.4000, -56.302
1102.8000, -56.428
1103.2000, -56.508
1103.6000, -56.738
1104.0000, -56.591
1104.4000, -56.441
1104.8000, -56.576
1105.2000, -56.478
1105.6000, -56.644
1106.0000, -56.434
1106.4000, -56.568
1106.8000, -56.375
1107.2000, -56.355
1107.6000, -56.378
1108.0000, -56.322
1108.4000, -56.403
1108.8000, -56.329
1109.2000, -56.228
1109.6000, -56.245
1110.0000, -56.232
1110.4000, -56.192
1110.8000, -56.263
1111.2000, -56.175
1111.6000, -56.132
1112.0000, -56.172
1112.4000, -56.104
1112.8000, -56.194
1113.2000, -56.096
1113.6000, -56.232
1114.0000, -56.138
1114.4000, -56.148
1114.8000, -56.154
1115.2000, -56.214
1115.6000, -56.193
1116.0000, -56.250
1116.4000, -56.225
1116.8000, -56.181
1117.2000, -56.181
1117.6000, -56.317
1118.0000, -56.282
1118.4000, -56.376
1118.8000, -56.382
1119.2000, -56.320
1119.6000, -56.369
1120.0000, -56.427
1120.4000, -56.426
1120.8000, -56.544
1121.2000, -56.475
1121.6000, -56.457
1122.0000, -56.527
1122.4000, -56.443
1122.8000, -56.601
1123.2000, -56.412
1123.6000, -56.579
1124.0000, -56.669
1124.4000, -56.791
1124.8000, -57.000
1125.2000, -56.985
1125.6000, -56.996
1126.0000, -56.997
1126.4000, -57.180
1126.8000, -57.282
1127.2000, -57.310
1127.6000, -57.271
1128.0000, -57.292
1128.4000, -57.462
1128.8000, -57.504
1129.2000, -57.611
1129.6000, -57.459
1130.0000, -57.593
1130.4000, -57.637
1130.8000, -57.583
1131.2000, -57.659
1131.6000, -57.713
1132.0000, -57.759
1132.4000, -57.867
1132.8000, -57.866
1133.2000, -57.877
1133.6000, -57.885
1134.0000, -57.877
1134.4000, -58.093
1134.8000, -58.026
1135.2000, -58.090
1135.6000, -58.140
1136.0000, -58.240
1136.4000, -58.091
1136.8000, -58.266
1137.2000, -58.243
1137.6000, -58.248
1138.0000, -58.318
1138.4000, -58.291
1138.8000, -58.407
1139.2000, -58.387
1139.6000, -58.452
1140.0000, -58.487
1140.4000, -58.633
1140.8000, -58.624
1141.2000, -58.609
1141.6000, -58.670
1142.0000, -58.644
1142.4000, -58.739
1142.8000, -58.863
1143.2000, -58.812
1143.6000, -58.933
1144.0000, -58.949
1144.4000, -58.909
1144.8000, -58.901
1145.2000, -59.046
1145.6000, -58.989
1146.0000, -59.104
1146.4000, -59.105
1146.8000, -59.142
1147.2000, -59.110
1147.6000, -59.201
1148.0000, -59.205
1148.4000, -59.291
1148.8000, -59.362
1149.2000, -59.350
1149.6000, -59.358
1150.0000, -59.435
1150.4000, -59.378
1150.8000, -59.488
1151.2000, -59.459
1151.6000, -59.404
1152.0000, -59.347
1152.4000, -59.439
1152.8000, -59.418
1153.2000, -59.414
1153.6000, -59.533
1154.0000, -59.471
1154.4000, -59.479
1154.8000, -59.477
1155.2000, -59.534
1155.6000, -59.556
1156.0000, -59.569
1156.4000, -59.602
1156.8000, -59.552
1157.2000, -59.502
1157.6000, -59.584
1158.0000, -59.593
1158.4000, -59.617
1158.8000, -59.569
1159.2000, -59.527
1159.6000, -59.571
1160.0000, -59.600
1160.4000, -59.543
1160.8000, -59.520
1161.2000, -59.580
1161.6000, -59.592
1162.0000, -59.631
1162.4000, -59.526
1162.8000, -59.580
1163.2000, -59.716
1163.6000, -59.651
1164.0000, -59.729
1164.4000, -59.649
1164.8000, -59.703
1165.2000, -59.739
1165.6000, -59.779
1166.0000, -59.759
1166.4000, -59.737
1166.8000, -59.799
1167.2000, -59.644
1167.6000, -59.786
1168.0000, -59.793
1168.4000, -59.845
1168.8000, -59.874
1169.2000, -59.982
1169.6000, -59.875
1170.0000, -59.905
1170.4000, -59.979
1170.8000, -59.912
1171.2000, -59.994
1171.6000, -60.127
1172.0000, -60.048
1172.4000, -60.101
1172.8000, -59.962
1173.2000, -60.202
1173.6000, -60.157
1174.0000, -60.075
1174.4000, -60.143
1174.8000, -60.124
1175.2000, -60.286
1175.6000, -60.196
1176.0000, -60.292
1176.4000, -60.267
1176.8000, -60.346
1177.2000, -60.305
1177.6000, -60.458
1178.0000, -60.423
1178.4000, -60.391
1178.8000, -60.416
1179.2000, -60.406
1179.6000, -60.489
1180.0000, -60.556
1180.4000, -60.590
1180.8000, -60.591
1181.2000, -60.658
1181.6000, -60.584
1182.0000, -60.610
1182.4000, -60.769
1182.8000, -60.749
1183.2000, -60.756
1183.6000, -60.801
1184.0000, -60.829
1184.4000, -60.829
1184.8000, -60.879
1185.2000, -60.919
1185.6000, -61.010
1186.0000, -60.918
1186.4000, -61.013
1186.8000, -61.035
1187.2000, -60.997
1187.6000, -61.136
1188.0000, -61.196
1188.4000, -61.019
1188.8000, -61.163
1189.2000, -61.219
1189.6000, -61.225
1190.0000, -61.319
1190.4000, -61.285
1190.8000, -61.216
1191.2000, -61.318
1191.6000, -61.288
1192.0000, -61.447
1192.4000, -61.335
1192.8000, -61.503
1193.2000, -61.523
1193.6000, -61.577
1194.0000, -61.424
1194.4000, -61.491
1194.8000, -61.597
1195.2000, -61.544
1195.6000, -61.657
1196.0000, -61.613
1196.4000, -61.650
1196.8000, -61.598
1197.2000, -61.736
1197.6000, -61.677
1198.0000, -61.690
1198.4000, -61.838
1198.8000, -61.791
1199.2000, -61.798
1199.6000, -61.824
1200.0000, -61.871
1200.4000, -61.897
1200.8000, -61.953
1201.2000, -61.947
1201.6000, -62.090
1202.0000, -62.061
1202.4000, -61.968
1202.8000, -61.962
1203.2000, -62.054
1203.6000, -61.978
1204.0000, -62.092
1204.4000, -62.289
1204.8000, -62.226
1205.2000, -62.194
1205.6000, -62.106
1206.0000, -62.328
1206.4000, -62.211
1206.8000, -62.324
1207.2000, -62.321
1207.6000, -62.348
1208.0000, -62.397
1208.4000, -62.422
1208.8000, -62.457
1209.2000, -62.424
1209.6000, -62.425
1210.0000, -62.484
1210.4000, -62.544
1210.8000, -62.507
1211.2000, -62.529
1211.6000, -62.527
1212.0000, -62.612
1212.4000, -62.516
1212.8000, -62.596
1213.2000, -62.677
1213.6000, -62.559
1214.0000, -62.646
1214.4000, -62.617
1214.8000, -62.652
1215.2000, -62.815
1215.6000, -62.732
1216.0000, -62.796
1216.4000, -62.772
1216.8000, -62.726
1217.2000, -62.882
1217.6000, -62.807
1218.0000, -62.831
1218.4000, -62.972
1218.8000, -63.095
1219.2000, -63.060
1219.6000, -62.842
1220.0000, -63.017
1220.4000, -62.940
1220.8000, -63.082
1221.2000, -63.085
1221.6000, -63.139
1222.0000, -63.175
1222.4000, -63.067
1222.8000, -63.133
1223.2000, -63.225
1223.6000, -63.198
1224.0000, -63.170
1224.4000, -63.196
1224.8000, -63.312
1225.2000, -63.183
1225.6000, -63.273
1226.0000, -63.279
1226.4000, -63.324
1226.8000, -63.377
1227.2000, -63.361
1227.6000, -63.272
1228.0000, -63.473
1228.4000, -63.457
1228.8000, -63.529
1229.2000, -63.523
1229.6000, -63.575
1230.0000, -63.462
1230.4000, -63.621
1230.8000, -63.644
1231.2000, -63.662
1231.6000, -63.540
1232.0000, -63.716
1232.4000, -63.656
1232.8000, -63.658
1233.2000, -63.671
1233.6000, -63.732
1234.0000, -63.866
1234.4000, -63.703
1234.8000, -63.830
1235.2000, -63.793
1235.6000, -63.916
1236.0000, -63.875
1236.4000, -63.926
1236.8000, -64.021
1237.2000, -63.990
1237.6000, -64.149
1238.0000, -64.113
1238.4000, -64.090
1238.8000, -64.087
1239.2000, -64.185
1239.6000, -64.195
1240.0000, -64.279
1240.4000, -64.091
1240.8000, -64.233
1241.2000, -64.190
1241.6000, -64.252
1242.0000, -64.377
1242.4000, -64.401
1242.8000, -64.409
1243.2000, -64.446
1243.6000, -64.356
1244.0000, -64.418
1244.4000, -64.434
1244.8000, -64.513
1245.2000, -64.521
1245.6000, -64.628
1246.0000, -64.650
1246.4000, -64.748
1246.8000, -64.681
1247.2000, -64.730
1247.6000, -64.707
1248.0000, -64.583
1248.4000, -64.830
1248.8000, -64.848
1249.2000, -64.849
1249.6000, -64.936
1250.0000, -64.876
1250.4000, -65.021
1250.8000, -65.090
1251.2000, -64.922
1251.6000, -65.027
1252.0000, -64.945
1252.4000, -65.164
1252.8000, -65.160
1253.2000, -65.196
1253.6000, -65.015
1254.0000, -65.165
1254.4000, -65.192
1254.8000, -65.126
1255.2000, -65.293
1255.6000, -65.195
1256.0000, -65.226
1256.4000, -65.458
1256.8000, -65.348
1257.2000, -65.368
1257.6000, -65.285
1258.0000, -65.339
1258.4000, -65.346
1258.8000, -65.284
1259.2000, -65.362
1259.6000, -65.487
1260.0000, -65.539
1260.4000, -65.678
1260.8000, -65.509
1261.2000, -65.539
1261.6000, -65.515
1262.0000, -65.658
1262.4000, -65.602
1262.8000, -65.523
1263.2000, -65.588
1263.6000, -65.661
1264.0000, -65.809
1264.4000, -65.656
1264.8000, -65.706
1265.2000, -65.700
1265.6000, -65.671
1266.0000, -65.666
1266.4000, -65.830
1266.8000, -65.840
1267.2000, -65.927
1267.6000, -65.683
1268.0000, -65.912
1268.4000, -65.869
1268.8000, -66.014
1269.2000, -65.801
1269.6000, -65.946
1270.0000, -66.077
1270.4000, -65.967
1270.8000, -66.122
1271.2000, -66.025
1271.6000, -66.015
1272.0000, -66.020
1272.4000, -66.070
1272.8000, -66.034
1273.2000, -66.065
1273.6000, -66.212
1274.0000, -66.185
1274.4000, -66.201
1274.8000, -66.307
1275.2000, -66.310
1275.6000, -66.361
1276.0000, -66.201
1276.4000, -66.237
1276.8000, -66.216
1277.2000, -66.265
1277.6000, -66.212
1278.0000, -66.341
1278.4000, -66.282
1278.8000, -66.298
1279.2000, -66.298
1279.6000, -66.483
1280.0000, -66.440
1280.4000, -66.536
1280.8000, -66.476
1281.2000, -66.612
1281.6000, -66.718
1282.0000, -66.694
1282.4000, -66.467
1282.8000, -66.619
1283.2000, -66.605
1283.6000, -66.883
1284.0000, -66.735
1284.4000, -66.771
1284.8000, -66.598
1285.2000, -66.756
1285.6000, -66.732
1286.0000, -66.634
1286.4000, -66.928
1286.8000, -66.675
1287.2000, -66.929
1287.6000, -66.739
1288.0000, -66.775
1288.4000, -66.844
1288.8000, -66.903
1289.2000, -66.917
1289.6000, -66.871
1290.0000, -66.862
1290.4000, -66.954
1290.8000, -66.824
1291.2000, -67.141
1291.6000, -66.879
1292.0000, -67.092
1292.4000, -67.010
1292.8000, -67.093
1293.2000, -67.097
1293.6000, -66.996
1294.0000, -67.216
1294.4000, -67.088
1294.8000, -67.006
1295.2000, -67.124
1295.6000, -67.072
1296.0000, -67.160
1296.4000, -67.333
1296.8000, -67.221
1297.2000, -67.241
1297.6000, -67.220
1298.0000, -67.392
1298.4000, -67.363
1298.8000, -67.408
1299.2000, -67.374
1299.6000, -67.162
1300.0000, -67.413
1300.4000, -67.340
1300.8000, -67.392
1301.2000, -67.273
1301.6000, -67.491
1302.0000, -67.436
1302.4000, -67.563
1302.8000, -67.533
1303.2000, -67.612
1303.6000, -67.332
1304.0000, -67.531
1304.4000, -67.411
1304.8000, -67.690
1305.2000, -67.573
1305.6000, -67.610
1306.0000, -67.595
1306.4000, -67.630
1306.8000, -67.642
1307.2000, -67.704
1307.6000, -67.771
1308.0000, -67.633
1308.4000, -67.876
1308.8000, -67.726
1309.2000, -67.861
1309.6000, -67.898
1310.0000, -67.756
1310.4000, -67.804
1310.8000, -67.732
1311.2000, -67.836
1311.6000, -67.940
1312.0000, -67.738
1312.4000, -67.793
1312.8000, -67.915
1313.2000, -67.905
1313.6000, -67.847
1314.0000, -67.857
1314.4000, -67.942
1314.8000, -67.870
1315.2000, -67.777
1315.6000, -67.903
1316.0000, -67.821
1316.4000, -67.892
1316.8000, -68.091
1317.2000, -67.966
1317.6000, -68.112
1318.0000, -68.070
1318.4000, -68.048
1318.8000, -67.912
1319.2000, -68.013
1319.6000, -68.026
1320.0000, -68.056
1320.4000, -68.153
1320.8000, -68.032
1321.2000, -68.105
1321.6000, -68.389
1322.0000, -68.123
1322.4000, -68.077
1322.8000, -68.167
1323.2000, -68.331
1323.6000, -68.147
1324.0000, -68.233
1324.4000, -68.285
1324.8000, -68.267
1325.2000, -68.249
1325.6000, -68.271
1326.0000, -68.317
1326.4000, -68.280
1326.8000, -68.408
1327.2000, -68.382
1327.6000, -68.231
1328.0000, -68.440
1328.4000, -68.374
1328.8000, -68.500
1329.2000, -68.552
1329.6000, -68.721
1330.0000, -68.609
1330.4000, -68.703
1330.8000, -68.601
1331.2000, -68.788
1331.6000, -68.651
1332.0000, -68.516
1332.4000, -68.650
1332.8000, -68.672
1333.2000, -68.724
1333.6000, -68.820
1334.0000, -68.612
1334.4000, -68.848
1334.8000, -68.670
1335.2000, -68.805
1335.6000, -68.717
1336.0000, -68.882
1336.4000, -68.870
1336.8000, -68.891
1337.2000, -68.969
1337.6000, -68.969
1338.0000, -68.925
1338.4000, -68.819
1338.8000, -68.848
1339.2000, -68.971
1339.6000, -68.858
1340.0000, -69.223
1340.4000, -69.043
1340.8000, -69.003
1341.2000, -69.132
1341.6000, -69.098
1342.0000, -69.116
1342.4000, -69.096
1342.8000, -68.877
1343.2000, -69.018
1343.6000, -69.143
1344.0000, -69.235
1344.4000, -69.265
1344.8000, -69.311
1345.2000, -69.356
1345.6000, -69.409
1346.0000, -69.333
1346.4000, -69.405
1346.8000, -69.283
1347.2000, -69.555
1347.6000, -69.679
1348.0000, -69.394
1348.4000, -69.456
1348.8000, -69.603
1349.2000, -69.619
1349.6000, -69.543
1350.0000, -69.651
1350.4000, -69.730
1350.8000, -69.729
1351.2000, -69.789
1351.6000, -69.869
1352.0000, -69.776
1352.4000, -69.858
1352.8000, -70.016
1353.2000, -69.987
1353.6000, -70.112
1354.0000, -70.265
1354.4000, -70.179
1354.8000, -70.262
1355.2000, -70.625
1355.6000, -70.277
1356.0000, -70.209
1356.4000, -70.477
1356.8000, -70.239
1357.2000, -70.084
1357.6000, -70.110
1358.0000, -70.166
1358.4000, -70.223
1358.8000, -70.734
1359.2000, -70.644
1359.6000, -70.500
1360.0000, -70.370
1360.4000, -70.674
1360.8000, -70.583
1361.2000, -70.874
1361.6000, -71.464
1362.0000, -71.379
1362.4000, -71.100
1362.8000, -71.114
1363.2000, -70.611
1363.6000, -70.913
1364.0000, -71.133
1364.4000, -71.248
1364.8000, -71.325
1365.2000, -71.611
1365.6000, -71.272
1366.0000, -71.112
1366.4000, -70.847
1366.8000, -71.191
1367.2000, -71.484
1367.6000, -71.312
1368.0000, -71.654
1368.4000, -71.711
1368.8000, -71.325
1369.2000, -71.508
1369.6000, -71.864
1370.0000, -71.410
1370.4000, -72.038
1370.8000, -71.864
1371.2000, -71.597
1371.6000, -71.914
1372.0000, -71.616
1372.4000, -71.911
1372.8000, -71.650
1373.2000, -71.867
1373.6000, -71.913
1374.0000, -72.177
1374.4000, -72.621
1374.8000, -72.261
1375.2000, -72.052
1375.6000, -72.368
1376.0000, -72.469
1376.4000, -72.219
1376.8000, -72.691
1377.2000, -72.588
1377.6000, -72.653
1378.0000, -72.769
1378.4000, -72.937
1378.8000, -73.159
1379.2000, -73.109
1379.6000, -73.349
1380.0000, -73.793
1380.4000, -74.124
1380.8000, -74.286
1381.2000, -73.545
1381.6000, -74.070
1382.0000, -74.510
1382.4000, -75.115
1382.8000, -74.358
1383.2000, -74.781
1383.6000, -74.879
1384.0000, -74.804
1384.4000, -74.734
1384.8000, -75.140
1385.2000, -74.979
1385.6000, -74.475
1386.0000, -74.826
1386.4000, -75.006
1386.8000, -74.609
1387.2000, -75.549
1387.6000, -74.403
1388.0000, -74.680
1388.4000, -74.715
1388.8000, -74.786
1389.2000, -76.144
1389.6000, -75.466
1390.0000, -76.219
1390.4000, -75.716
1390.8000, -75.767
1391.2000, -75.520
1391.6000, -76.131
1392.0000, -75.658
1392.4000, -76.365
1392.8000, -76.239
1393.2000, -76.126
1393.6000, -75.792
1394.0000, -75.649
1394.4000, -76.750
1394.8000, -75.764
1395.2000, -76.827
1395.6000, -77.688
1396.0000, -76.673
1396.4000, -76.879
1396.8000, -76.716
1397.2000, -76.763
1397.6000, -76.496
1398.0000, -76.188
1398.4000, -76.603
1398.8000, -77.582
1399.2000, -77.175
1399.6000, -77.882
1400.0000, -77.490
1400.4000, -76.932
1400.8000, -77.779
1401.2000, -77.572
1401.6000, -77.008
1402.0000, -76.649
1402.4000, -77.456
1402.8000, -77.542
1403.2000, -76.696
1403.6000, -77.056
1404.0000, -77.482
1404.4000, -76.999
1404.8000, -76.746
1405.2000, -77.443
1405.6000, -77.244
1406.0000, -77.055
1406.4000, -77.136
1406.8000, -77.067
1407.2000, -77.753
1407.6000, -77.370
1408.0000, -76.696
1408.4000, -77.436
1408.8000, -77.173
1409.2000, -76.970
1409.6000, -77.172
1410.0000, -77.878
1410.4000, -78.144
1410.8000, -76.842
1411.2000, -75.883
1411.6000, -76.652
1412.0000, -77.191
1412.4000, -76.920
1412.8000, -76.641
1413.2000, -76.060
1413.6000, -77.906
1414.0000, -76.901
1414.4000, -77.303
1414.8000, -76.630
1415.2000, -75.516
1415.6000, -77.305
1416.0000, -75.932
1416.4000, -75.928
1416.8000, -77.145
1417.2000, -77.117
1417.6000, -75.976
1418.0000, -76.172
1418.4000, -76.742
1418.8000, -76.480
1419.2000, -77.159
1419.6000, -77.723
1420.0000, -76.290
1420.4000, -75.979
1420.8000, -76.571
1421.2000, -77.692
1421.6000, -76.849
1422.0000, -77.346
1422.4000, -76.312
1422.8000, -76.622
1423.2000, -76.436
1423.6000, -76.087
1424.0000, -77.082
1424.4000, -75.926
1424.8000, -76.363
1425.2000, -76.610
1425.6000, -76.288
1426.0000, -77.012
1426.4000, -76.782
1426.8000, -76.834
1427.2000, -76.517
1427.6000, -76.152
1428.0000, -76.274
1428.4000, -76.206
1428.8000, -76.758
1429.2000, -76.558
1429.6000, -76.500
1430.0000, -76.250
1430.4000, -76.177
1430.8000, -77.136
1431.2000, -75.986
1431.6000, -76.415
1432.0000, -76.794
1432.4000, -78.044
1432.8000, -77.408
1433.2000, -76.910
1433.6000, -76.853
1434.0000, -76.824
1434.4000, -78.609
1434.8000, -75.996
1435.2000, -76.771
1435.6000, -77.058
1436.0000, -76.181
1436.4000, -76.259
1436.8000, -76.862
1437.2000, -77.733
1437.6000, -76.830
1438.0000, -77.036
1438.4000, -77.181
1438.8000, -77.196
1439.2000, -77.261
1439.6000, -77.163
1440.0000, -77.080
1440.4000, -76.883
1440.8000, -76.776
1441.2000, -78.207
1441.6000, -78.169
1442.0000, -77.004
1442.4000, -76.912
1442.8000, -76.940
1443.2000, -78.091
1443.6000, -78.473
1444.0000, -78.240
1444.4000, -77.461
1444.8000, -77.492
1445.2000, -77.432
1445.6000, -78.015
1446.0000, -78.042
1446.4000, -78.175
1446.8000, -78.307
1447.2000, -77.181
1447.6000, -78.716
1448.0000, -77.365
1448.4000, -77.533
1448.8000, -78.088
1449.2000, -76.938
1449.6000, -76.806
1450.0000, -78.057
1450.4000, -78.196
1450.8000, -77.765
1451.2000, -78.833
1451.6000, -76.528
1452.0000, -79.542
1452.4000, -76.364
1452.8000, -76.814
1453.2000, -78.012
1453.6000, -79.300
1454.0000, -78.567
1454.4000, -78.431
1454.8000, -77.539
1455.2000, -78.177
1455.6000, -78.751
1456.0000, -79.273
1456.4000, -79.204
1456.8000, -79.255
1457.2000, -78.985
1457.6000, -78.006
1458.0000, -78.893
1458.4000, -78.054
1458.8000, -78.658
1459.2000, -80.085
1459.6000, -77.273
1460.0000, -77.734
1460.4000, -77.409
1460.8000, -78.963
1461.2000, -78.679
1461.6000, -79.852
1462.0000, -78.766
1462.4000, -78.068
1462.8000, -77.912
1463.2000, -78.064
1463.6000, -79.510
1464.0000, -79.251
1464.4000, -77.717
1464.8000, -78.983
1465.2000, -79.962
1465.6000, -79.095
1466.0000, -78.471
1466.4000, -77.852
1466.8000, -76.991
1467.2000, -79.434
1467.6000, -78.409
1468.0000, -79.599
1468.4000, -78.976
1468.8000, -78.186
1469.2000, -78.452
1469.6000, -79.674
1470.0000, -77.860
1470.4000, -78.433
1470.8000, -79.384
1471.2000, -79.147
1471.6000, -81.716
1472.0000, -79.450
1472.4000, -79.988
1472.8000, -78.175
1473.2000, -77.674
1473.6000, -78.316
1474.0000, -78.557
1474.4000, -78.233
1474.8000, -80.386
1475.2000, -78.322
1475.6000, -79.624
1476.0000, -79.702
1476.4000, -79.591
1476.8000, -79.546
1477.2000, -81.054
1477.6000, -79.655
1478.0000, -79.315
1478.4000, -80.638
1478.8000, -79.055
1479.2000, -79.954
1479.6000, -77.794
1480.0000, -79.011
1480.4000, -80.126
1480.8000, -80.592
1481.2000, -80.068
1481.6000, -84.427
1482.0000, -79.750
1482.4000, -79.383
1482.8000, -79.305
1483.2000, -81.604
1483.6000, -82.305
1484.0000, -81.419
1484.4000, -82.454
1484.8000, -79.474
1485.2000, -78.727
1485.6000, -80.177
1486.0000, -79.384
1486.4000, -81.287
1486.8000, -81.098
1487.2000, -79.678
1487.6000, -83.639
1488.0000, -79.041
1488.4000, -81.203
1488.8000, -81.012
1489.2000, -82.199
1489.6000, -80.128
1490.0000, -80.555
1490.4000, -79.034
1490.8000, -80.219
1491.2000, -80.626
1491.6000, -81.163
1492.0000, -83.005
1492.4000, -82.543
1492.8000, -81.624
1493.2000, -80.696
1493.6000, -78.505
1494.0000, -80.807
1494.4000, -82.755
1494.8000, -82.067
1495.2000, -80.674
1495.6000, -79.685
1496.0000, -79.799
1496.4000, -80.070
1496.8000, -80.174
1497.2000, -81.903
1497.6000, -80.876
1498.0000, -80.653
1498.4000, -80.256
1498.8000, -80.520
1499.2000, -84.299
1499.6000, -82.592
1500.0000, -78.760
1500.4000, -80.663
1500.8000, -80.456
1501.2000, -80.740
1501.6000, -82.763
1502.0000, -82.408
1502.4000, -80.808
1502.8000, -83.480
1503.2000, -80.111
1503.6000, -81.897
1504.0000, -81.102
1504.4000, -79.578
1504.8000, -81.681
1505.2000, -82.782
1505.6000, -84.343
1506.0000, -81.203
1506.4000, -80.427
1506.8000, -80.999
1507.2000, -80.732
1507.6000, -80.227
1508.0000, -79.955
1508.4000, -80.956
1508.8000, -81.014
1509.2000, -82.862
1509.6000, -80.796
1510.0000, -81.917
1510.4000, -82.441
1510.8000, -82.508
1511.2000, -80.494
1511.6000, -81.238
1512.0000, -80.812
1512.4000, -82.201
1512.8000, -82.729
1513.2000, -82.046
1513.6000, -81.829
1514.0000, -83.605
1514.4000, -81.991
1514.8000, -79.419
1515.2000, -83.235
1515.6000, -81.614
1516.0000, -83.729
1516.4000, -81.240
1516.8000, -81.819
1517.2000, -80.531
1517.6000, -81.347
1518.0000, -82.852
1518.4000, -82.062
1518.8000, -82.427
1519.2000, -83.346
1519.6000, -81.337
1520.0000, -80.765
1520.4000, -91.635
1520.8000, -80.032
1521.2000, -83.530
1521.6000, -82.854
1522.0000, -82.428
1522.4000, -82.862
1522.8000, -79.925
1523.2000, -82.116
1523.6000, -80.037
1524.0000, -86.172
1524.4000, -81.156
1524.8000, -80.941
1525.2000, -88.652
1525.6000, -84.131
1526.0000, -80.377
1526.4000, -83.548
1526.8000, -87.401
1527.2000, -83.642
1527.6000, -84.888
1528.0000, -81.806
1528.4000, -81.077
1528.8000, -83.173
1529.2000, -81.580
1529.6000, -80.159
1530.0000, -82.300
1530.4000, -81.671
1530.8000, -86.122
1531.2000, -81.511
1531.6000, -83.582
1532.0000, -82.959
1532.4000, -81.146
1532.8000, -80.753
1533.2000, -82.070
1533.6000, -85.798
1534.0000,-210.000
1534.4000, -84.710
1534.8000, -80.586
1535.2000, -82.651
1535.6000, -87.912
1536.0000, -79.712
1536.4000, -86.030
1536.8000, -83.253
1537.2000, -87.127
1537.6000, -82.241
1538.0000, -87.333
1538.4000, -85.525
1538.8000, -84.956
1539.2000, -85.574
1539.6000, -89.624
1540.0000,-210.000
1540.4000, -82.305
1540.8000, -81.522
1541.2000, -82.966
1541.6000, -85.518
1542.0000, -84.715
1542.4000, -83.227
1542.8000, -88.704
1543.2000, -83.050
1543.6000, -83.366
1544.0000, -85.194
1544.4000, -83.579
1544.8000, -81.287
1545.2000, -81.163
1545.6000, -82.363
1546.0000, -86.851
1546.4000, -82.208
1546.8000, -88.626
1547.2000, -82.532
1547.6000, -83.344
1548.0000, -83.659
1548.4000,-210.000
1548.8000, -92.488
1549.2000, -83.421
1549.6000, -83.712
1550.0000, -84.093
1550.4000, -93.331
1550.8000, -81.757
1551.2000, -88.756
1551.6000,-210.000
1552.0000, -84.567
1552.4000, -84.763
1552.8000, -82.665
1553.2000, -82.354
1553.6000, -93.275
1554.0000, -83.175
1554.4000, -88.806
1554.8000, -83.547
1555.2000, -82.776
1555.6000, -81.545
1556.0000, -83.769
1556.4000, -85.304
1556.8000, -83.292
1557.2000, -90.416
1557.6000, -84.129
1558.0000,-210.000
1558.4000,-210.000
1558.8000, -82.920
1559.2000, -84.099
1559.6000, -83.768
1560.0000, -90.217
1560.4000, -83.163
1560.8000,-210.000
1561.2000,-210.000
1561.6000, -87.293
1562.0000, -86.756
1562.4000, -88.044
1562.8000, -80.934
1563.2000, -82.770
1563.6000, -86.428
1564.0000, -87.399
1564.4000, -82.975
1564.8000,-100.577
1565.2000, -83.294
1565.6000, -83.607
1566.0000, -87.088
1566.4000,-210.000
1566.8000,-210.000
1567.2000, -82.471
1567.6000,-210.000
1568.0000, -83.476
1568.4000, -93.958
1568.8000,-210.000
1569.2000, -95.497
1569.6000, -94.183
1570.0000,-210.000
1570.4000, -82.073
1570.8000,-210.000
1571.2000,-210.000
1571.6000,-102.870
1572.0000, -83.183
1572.4000, -88.666
1572.8000, -86.240
1573.2000, -84.720
1573.6000, -90.310
1574.0000, -89.174
1574.4000, -81.438
1574.8000, -83.161
1575.2000, -83.765
1575.6000,-210.000
1576.0000, -88.698
1576.4000, -83.699
1576.8000, -85.688
1577.2000, -85.858
1577.6000, -85.621
1578.0000, -91.856
1578.4000, -87.939
1578.8000, -85.571
1579.2000, -93.000
1579.6000, -88.589
1580.0000, -87.100
1580.4000,-210.000
1580.8000, -84.579
1581.2000, -87.156
1581.6000, -81.407
1582.0000,-210.000
1582.4000, -80.968
1582.8000, -81.096
1583.2000,-210.000
1583.6000, -87.458
1584.0000, -90.208
1584.4000, -84.026
1584.8000,-210.000
1585.2000,-210.000
1585.6000,-210.000
1586.0000, -87.407
1586.4000, -87.097
1586.8000,-210.000
1587.2000, -88.813
1587.6000, -83.591
1588.0000, -85.467
1588.4000,-210.000
1588.8000,-210.000
1589.2000, -83.272
1589.6000,-210.000
1590.0000,-210.000
1590.4000, -83.872
1590.8000,-100.584
1591.2000,-210.000
1591.6000,-210.000
1592.0000,-210.000
1592.4000, -82.813
1592.8000, -86.379
1593.2000, -85.675
1593.6000, -82.312
1594.0000, -88.801
1594.4000,-210.000
1594.8000, -85.138
1595.2000, -83.587
1595.6000, -88.873
1596.0000, -82.145
1596.4000,-210.000
1596.8000,-210.000
1597.2000, -91.070
1597.6000, -82.247
1598.0000, -85.032
1598.4000,-210.000
1598.8000, -85.421
1599.2000,-210.000
1599.6000,-210.000
1600.0000, -89.786
1600.4000, -83.729
1600.8000,-210.000
1601.2000, -90.476
1601.6000, -82.186
1602.0000, -89.042
1602.4000,-210.000
1602.8000, -90.463
1603.2000, -86.542
1603.6000,-210.000
1604.0000, -95.397
1604.4000, -85.283
1604.8000,-210.000
1605.2000, -82.769
1605.6000,-210.000
1606.0000, -86.579
1606.4000, -83.653
1606.8000, -90.159
1607.2000, -84.032
1607.6000,-210.000
1608.0000, -83.025
1608.4000, -84.684
1608.8000,-210.000
1609.2000,-210.000
1609.6000, -85.405
1610.0000,-210.000
1610.4000, -89.587
1610.8000, -90.207
1611.2000,-210.000
1611.6000,-210.000
1612.0000,-210.000
1612.4000,-210.000
1612.8000, -91.566
1613.2000,-210.000
1613.6000,-210.000
1614.0000, -86.416
1614.4000, -86.533
1614.8000, -84.922
1615.2000,-210.000
1615.6000, -89.223
1616.0000, -88.955
1616.4000,-210.000
1616.8000,-210.000
1617.2000, -83.241
1617.6000, -84.221
1618.0000, -89.369
1618.4000,-210.000
1618.8000, -84.131
1619.2000, -90.752
1619.6000,-210.000
1620.0000, -84.113
1620.4000, -91.224
1620.8000, -84.101
1621.2000,-210.000
1621.6000,-210.000
1622.0000,-210.000
1622.4000,-210.000
1622.8000,-210.000
1623.2000, -84.703
1623.6000, -84.071
1624.0000, -85.592
1624.4000, -94.230
1624.8000,-210.000
1625.2000, -92.091
1625.6000,-210.000
1626.0000,-210.000
1626.4000,-210.000
1626.8000,-210.000
1627.2000,-210.000
1627.6000, -88.090
1628.0000,-210.000
1628.4000,-210.000
1628.8000, -95.232
1629.2000,-210.000
1629.6000, -86.524
1630.0000, -86.727
1630.4000,-210.000
1630.8000,-210.000
1631.2000, -95.728
1631.6000,-210.000
1632.0000, -85.065
1632.4000,-210.000
1632.8000,-210.000
1633.2000, -89.189
1633.6000, -85.569
1634.0000, -96.059
1634.4000,-210.000
1634.8000, -90.881
1635.2000, -85.758
1635.6000,-210.000
1636.0000, -86.203
1636.4000,-210.000
1636.8000, -84.404
1637.2000,-210.000
1637.6000, -97.809
1638.0000,-210.000
1638.4000, -88.773
1638.8000, -89.882
1639.2000,-210.000
1639.6000, -84.497
1640.0000, -90.511
1640.4000, -85.046
1640.8000,-210.000
1641.2000, -86.034
1641.6000, -93.705
1642.0000,-210.000
1642.4000,-210.000
1642.8000, -85.311
1643.2000, -90.199
1643.6000, -86.642
1644.0000,-210.000
1644.4000, -87.814
1644.8000,-210.000
1645.2000, -92.475
1645.6000, -83.392
1646.0000, -85.393
1646.4000,-210.000
1646.8000, -87.969
1647.2000,-210.000
1647.6000,-210.000
1648.0000, -85.984
1648.4000,-210.000
1648.8000, -82.383
1649.2000, -82.265
1649.6000,-210.000
1650.0000,-210.000
1650.4000, -82.524
1650.8000, -86.242
1651.2000,-210.000
1651.6000,-210.000
1652.0000,-210.000
1652.4000,-210.000
1652.8000,-210.000
1653.2000,-210.000
1653.6000,-210.000
1654.0000,-210.000
1654.4000,-210.000
1654.8000,-210.000
1655.2000,-210.000
1655.6000, -81.682
1656.0000,-210.000
1656.4000, -86.701
1656.8000,-210.000
1657.2000, -89.610
1657.6000,-210.000
1658.0000,-210.000
1658.4000,-210.000
1658.8000, -89.457
1659.2000, -86.791
1659.6000, -83.139
1660.0000, -82.809
1660.4000,-210.000
1660.8000,-210.000
1661.2000,-210.000
1661.6000, -82.974
1662.0000,-210.000
1662.4000,-210.000
1662.8000, -89.278
1663.2000,-210.000
1663.6000,-210.000
1664.0000, -90.154
1664.4000, -84.836
1664.8000, -85.430
1665.2000,-210.000
1665.6000,-210.000
1666.0000,-210.000
1666.4000,-210.000
1666.8000,-210.000
1667.2000,-210.000
1667.6000,-210.000
1668.0000,-210.000
1668.4000,-210.000
1668.8000, -88.393
1669.2000,-210.000
1669.6000,-210.000
1670.0000, -91.409
1670.4000,-210.000
1670.8000,-210.000
1671.2000, -89.380
1671.6000, -83.647
1672.0000, -82.727
1672.4000, -82.863
1672.8000,-210.000
1673.2000,-210.000
1673.6000,-210.000
1674.0000,-210.000
1674.4000,-210.000
1674.8000, -84.244
1675.2000,-210.000
1675.6000,-210.000
1676.0000,-210.000
1676.4000, -78.553
1676.8000,-210.000
1677.2000, -82.189
1677.6000,-210.000
1678.0000,-210.000
1678.4000, -78.652
1678.8000, -77.580
1679.2000, -80.714
1679.6000,-210.000
1680.0000,-210.000
1680.4000,-210.000
1680.8000,-210.000
1681.2000, -87.734
1681.6000,-210.000
1682.0000, -82.107
1682.4000, -77.976
1682.8000,-210.000
1683.2000, -86.262
1683.6000, -96.619
1684.0000, -87.192
1684.4000, -88.748
1684.8000, -86.368
1685.2000,-210.000
1685.6000, -75.160
1686.0000,-210.000
1686.4000,-210.000
1686.8000,-210.000
1687.2000,-210.000
1687.6000,-210.000
1688.0000, -75.196
1688.4000,-210.000
1688.8000, -77.005
1689.2000,-210.000
1689.6000, -75.738
1690.0000, -91.527
1690.4000, -77.228
1690.8000, -82.446
1691.2000, -77.914
1691.6000, -77.596
1692.0000, -92.333
1692.4000,-210.000
1692.8000,-210.000
1693.2000, -79.899
1693.6000,-210.000
1694.0000, -78.731
1694.4000, -76.321
1694.8000,-210.000
1695.2000,-210.000
1695.6000,-210.000
1696.0000,-210.000
1696.4000,-210.000
1696.8000,-210.000
1697.2000, -75.803
1697.6000,-210.000
1698.0000,-210.000
1698.4000, -78.072
1698.8000, -75.290
1699.2000, -83.091
1699.6000,-210.000
1700.0000, -75.594
