74CSV  	
// AQ6374 OPTICAL SPECTRUM ANALYZER //                  
35
"CTRWL", 807.000000
"SPAN", 514.000000
"START WL", 550.000000
"STOP WL",1064.000000
"WLFREQ", 0
"REFL",-44.6
"LSCL", 2.9
"RESLN",1.000
"AVG",   1
"SMPLAUTO",      1
"SMPL",       2571
"SMPLINTVL",0.2000
"HIGH1"
"MEAS"
"LSUNT",0
"NMSKH","OFF"
"RESCOR",0
"SMOOTH",0
"MEASWL",1
"SWPSPD",0
"MODELNAME","AQ6374"
"CHGPT",        102
"RESCAL0_0",       9996
"RESCAL0_1",       -866
"RESCAL0_2",    1341521
"RESCAL1_0",      10053
"RESCAL1_1",          0
"RESCAL1_2",          0
"CORESIZE", 0






"[TRACE DATA]"
 550.0000,-210.000
 550.2000,-210.000
 550.4000, -77.521
 550.6000,-210.000
 550.8000, -68.981
 551.0000, -68.702
 551.2000, -73.138
 551.4000, -70.076
 551.6000, -75.121
 551.8000,-210.000
 552.0000,-210.000
 552.2000, -68.802
 552.4000, -71.738
 552.6000, -69.222
 552.8000,-210.000
 553.0000, -71.011
 553.2000, -73.038
 553.4000, -70.839
 553.6000, -70.640
 553.8000, -69.442
 554.0000,-210.000
 554.2000,-210.000
 554.4000, -68.247
 554.6000,-210.000
 554.8000,-210.000
 555.0000, -69.900
 555.2000, -70.376
 555.4000, -71.995
 555.6000, -71.000
 555.8000,-210.000
 556.0000, -69.313
 556.2000, -75.937
 556.4000, -67.440
 556.6000, -72.261
 556.8000, -70.422
 557.0000,-210.000
 557.2000,-210.000
 557.4000, -69.918
 557.6000,-210.000
 557.8000, -68.666
 558.0000, -80.059
 558.2000,-210.000
 558.4000, -69.421
 558.6000, -75.141
 558.8000, -67.787
 559.0000, -77.319
 559.2000, -70.574
 559.4000, -70.851
 559.6000, -76.853
 559.8000, -80.979
 560.0000, -68.296
 560.2000, -69.293
 560.4000,-210.000
 560.6000, -72.106
 560.8000, -70.741
 561.0000, -71.317
 561.2000, -69.413
 561.4000, -75.789
 561.6000, -68.507
 561.8000,-210.000
 562.0000,-210.000
 562.2000, -65.427
 562.4000, -70.303
 562.6000, -71.607
 562.8000, -70.843
 563.0000, -73.356
 563.2000, -66.816
 563.4000, -69.753
 563.6000,-210.000
 563.8000, -71.688
 564.0000, -72.037
 564.2000,-210.000
 564.4000, -69.578
 564.6000, -72.563
 564.8000,-210.000
 565.0000,-210.000
 565.2000, -67.260
 565.4000, -68.812
 565.6000, -67.620
 565.8000,-210.000
 566.0000, -87.496
 566.2000, -66.962
 566.4000, -70.494
 566.6000,-210.000
 566.8000, -70.464
 567.0000, -69.075
 567.2000, -68.518
 567.4000,-210.000
 567.6000, -71.152
 567.8000, -70.306
 568.0000, -68.082
 568.2000, -68.503
 568.4000, -71.924
 568.6000, -66.386
 568.8000, -67.527
 569.0000, -73.649
 569.2000, -72.563
 569.4000, -78.046
 569.6000, -65.363
 569.8000, -67.195
 570.0000, -70.488
 570.2000, -67.457
 570.4000, -65.599
 570.6000, -66.133
 570.8000, -69.314
 571.0000, -70.426
 571.2000, -67.624
 571.4000, -66.185
 571.6000, -67.096
 571.8000, -66.304
 572.0000, -70.440
 572.2000, -71.433
 572.4000, -68.768
 572.6000, -66.406
 572.8000, -68.233
 573.0000, -67.265
 573.2000, -68.624
 573.4000, -65.704
 573.6000, -68.316
 573.8000, -66.090
 574.0000, -68.788
 574.2000, -66.463
 574.4000, -67.261
 574.6000, -66.493
 574.8000, -67.422
 575.0000, -65.913
 575.2000, -67.186
 575.4000, -66.978
 575.6000, -66.401
 575.8000, -64.709
 576.0000, -65.761
 576.2000, -66.708
 576.4000, -66.219
 576.6000, -66.089
 576.8000, -65.542
 577.0000, -65.739
 577.2000, -66.135
 577.4000, -65.774
 577.6000, -65.326
 577.8000, -66.725
 578.0000, -67.255
 578.2000, -65.401
 578.4000, -65.942
 578.6000, -64.700
 578.8000, -65.889
 579.0000, -66.229
 579.2000, -65.328
 579.4000, -65.732
 579.6000, -64.974
 579.8000, -66.046
 580.0000, -65.507
 580.2000, -65.430
 580.4000, -64.580
 580.6000, -64.742
 580.8000, -65.796
 581.0000, -65.534
 581.2000, -64.789
 581.4000, -64.895
 581.6000, -64.821
 581.8000, -64.900
 582.0000, -64.576
 582.2000, -65.661
 582.4000, -64.659
 582.6000, -64.576
 582.8000, -65.079
 583.0000, -64.542
 583.2000, -63.657
 583.4000, -63.719
 583.6000, -64.597
 583.8000, -65.459
 584.0000, -64.298
 584.2000, -63.867
 584.4000, -64.281
 584.6000, -64.030
 584.8000, -62.785
 585.0000, -63.521
 585.2000, -63.784
 585.4000, -63.399
 585.6000, -63.769
 585.8000, -63.084
 586.0000, -62.956
 586.2000, -63.235
 586.4000, -63.752
 586.6000, -63.425
 586.8000, -62.846
 587.0000, -63.489
 587.2000, -63.326
 587.4000, -63.352
 587.6000, -63.480
 587.8000, -63.319
 588.0000, -62.829
 588.2000, -63.102
 588.4000, -62.372
 588.6000, -62.756
 588.8000, -62.723
 589.0000, -62.618
 589.2000, -63.179
 589.4000, -62.813
 589.6000, -61.805
 589.8000, -62.370
 590.0000, -62.383
 590.2000, -62.140
 590.4000, -62.840
 590.6000, -61.968
 590.8000, -61.895
 591.0000, -62.006
 591.2000, -62.138
 591.4000, -62.061
 591.6000, -61.866
 591.8000, -62.206
 592.0000, -62.756
 592.2000, -61.604
 592.4000, -61.856
 592.6000, -61.790
 592.8000, -61.641
 593.0000, -61.672
 593.2000, -61.517
 593.4000, -61.427
 593.6000, -60.929
 593.8000, -61.064
 594.0000, -61.412
 594.2000, -61.128
 594.4000, -61.048
 594.6000, -60.849
 594.8000, -60.910
 595.0000, -60.876
 595.2000, -60.596
 595.4000, -60.392
 595.6000, -60.789
 595.8000, -60.875
 596.0000, -61.140
 596.2000, -60.488
 596.4000, -60.532
 596.6000, -60.852
 596.8000, -60.680
 597.0000, -60.466
 597.2000, -60.571
 597.4000, -60.458
 597.6000, -60.200
 597.8000, -60.581
 598.0000, -60.334
 598.2000, -60.079
 598.4000, -60.088
 598.6000, -60.206
 598.8000, -59.793
 599.0000, -60.096
 599.2000, -59.887
 599.4000, -60.042
 599.6000, -59.822
 599.8000, -59.724
 600.0000, -59.635
 600.2000, -59.503
 600.4000, -59.363
 600.6000, -59.548
 600.8000, -59.478
 601.0000, -59.348
 601.2000, -59.304
 601.4000, -59.306
 601.6000, -59.536
 601.8000, -59.134
 602.0000, -59.452
 602.2000, -59.173
 602.4000, -59.141
 602.6000, -59.082
 602.8000, -59.046
 603.0000, -58.946
 603.2000, -58.976
 603.4000, -58.886
 603.6000, -58.820
 603.8000, -58.815
 604.0000, -58.884
 604.2000, -58.779
 604.4000, -58.807
 604.6000, -58.800
 604.8000, -58.385
 605.0000, -58.606
 605.2000, -58.227
 605.4000, -58.117
 605.6000, -58.293
 605.8000, -57.961
 606.0000, -58.056
 606.2000, -58.126
 606.4000, -57.976
 606.6000, -57.889
 606.8000, -58.056
 607.0000, -58.067
 607.2000, -58.031
 607.4000, -57.805
 607.6000, -57.796
 607.8000, -57.661
 608.0000, -57.729
 608.2000, -57.623
 608.4000, -57.606
 608.6000, -57.581
 608.8000, -57.628
 609.0000, -57.482
 609.2000, -57.406
 609.4000, -57.457
 609.6000, -57.194
 609.8000, -57.368
 610.0000, -57.275
 610.2000, -57.224
 610.4000, -57.140
 610.6000, -56.991
 610.8000, -56.752
 611.0000, -56.841
 611.2000, -56.922
 611.4000, -56.684
 611.6000, -56.888
 611.8000, -56.627
 612.0000, -56.562
 612.2000, -56.650
 612.4000, -56.400
 612.6000, -56.321
 612.8000, -56.496
 613.0000, -56.309
 613.2000, -56.494
 613.4000, -56.282
 613.6000, -56.045
 613.8000, -56.197
 614.0000, -56.061
 614.2000, -56.158
 614.4000, -55.988
 614.6000, -56.120
 614.8000, -55.991
 615.0000, -55.920
 615.2000, -55.787
 615.4000, -55.817
 615.6000, -55.781
 615.8000, -55.716
 616.0000, -55.543
 616.2000, -55.579
 616.4000, -55.556
 616.6000, -55.373
 616.8000, -55.311
 617.0000, -55.180
 617.2000, -55.210
 617.4000, -55.271
 617.6000, -55.167
 617.8000, -55.056
 618.0000, -55.086
 618.2000, -55.099
 618.4000, -55.071
 618.6000, -54.891
 618.8000, -54.899
 619.0000, -54.737
 619.2000, -54.639
 619.4000, -54.753
 619.6000, -54.698
 619.8000, -54.620
 620.0000, -54.388
 620.2000, -54.536
 620.4000, -54.433
 620.6000, -54.409
 620.8000, -54.327
 621.0000, -54.492
 621.2000, -54.287
 621.4000, -54.293
 621.6000, -54.189
 621.8000, -54.075
 622.0000, -54.115
 622.2000, -54.157
 622.4000, -54.195
 622.6000, -53.969
 622.8000, -53.977
 623.0000, -53.771
 623.2000, -53.863
 623.4000, -53.664
 623.6000, -53.777
 623.8000, -53.529
 624.0000, -53.561
 624.2000, -53.648
 624.4000, -53.404
 624.6000, -53.482
 624.8000, -53.333
 625.0000, -53.435
 625.2000, -53.246
 625.4000, -53.276
 625.6000, -53.089
 625.8000, -53.115
 626.0000, -53.009
 626.2000, -52.938
 626.4000, -52.896
 626.6000, -52.860
 626.8000, -52.994
 627.0000, -52.844
 627.2000, -52.827
 627.4000, -52.787
 627.6000, -52.805
 627.8000, -52.687
 628.0000, -52.607
 628.2000, -52.566
 628.4000, -52.552
 628.6000, -52.515
 628.8000, -52.485
 629.0000, -52.473
 629.2000, -52.393
 629.4000, -52.251
 629.6000, -52.188
 629.8000, -52.217
 630.0000, -52.148
 630.2000, -52.135
 630.4000, -52.150
 630.6000, -52.044
 630.8000, -51.844
 631.0000, -52.061
 631.2000, -51.919
 631.4000, -51.956
 631.6000, -51.889
 631.8000, -51.850
 632.0000, -51.812
 632.2000, -51.747
 632.4000, -51.733
 632.6000, -51.611
 632.8000, -51.572
 633.0000, -51.506
 633.2000, -51.499
 633.4000, -51.506
 633.6000, -51.505
 633.8000, -51.364
 634.0000, -51.447
 634.2000, -51.316
 634.4000, -51.277
 634.6000, -51.282
 634.8000, -51.085
 635.0000, -51.215
 635.2000, -50.978
 635.4000, -51.088
 635.6000, -50.962
 635.8000, -51.094
 636.0000, -51.070
 636.2000, -50.920
 636.4000, -50.821
 636.6000, -50.752
 636.8000, -50.879
 637.0000, -50.930
 637.2000, -50.805
 637.4000, -50.618
 637.6000, -50.682
 637.8000, -50.595
 638.0000, -50.522
 638.2000, -50.608
 638.4000, -50.553
 638.6000, -50.521
 638.8000, -50.459
 639.0000, -50.322
 639.2000, -50.439
 639.4000, -50.340
 639.6000, -50.351
 639.8000, -50.328
 640.0000, -50.295
 640.2000, -50.393
 640.4000, -50.122
 640.6000, -50.232
 640.8000, -50.229
 641.0000, -50.194
 641.2000, -50.077
 641.4000, -50.146
 641.6000, -50.093
 641.8000, -50.077
 642.0000, -50.012
 642.2000, -49.983
 642.4000, -49.867
 642.6000, -50.043
 642.8000, -49.923
 643.0000, -49.756
 643.2000, -49.640
 643.4000, -49.647
 643.6000, -49.778
 643.8000, -49.669
 644.0000, -49.724
 644.2000, -49.767
 644.4000, -49.644
 644.6000, -49.612
 644.8000, -49.526
 645.0000, -49.555
 645.2000, -49.635
 645.4000, -49.520
 645.6000, -49.495
 645.8000, -49.456
 646.0000, -49.328
 646.2000, -49.378
 646.4000, -49.333
 646.6000, -49.325
 646.8000, -49.295
 647.0000, -49.263
 647.2000, -49.437
 647.4000, -49.259
 647.6000, -49.280
 647.8000, -49.152
 648.0000, -49.271
 648.2000, -49.165
 648.4000, -49.084
 648.6000, -49.147
 648.8000, -49.360
 649.0000, -49.079
 649.2000, -49.224
 649.4000, -49.058
 649.6000, -49.107
 649.8000, -48.899
 650.0000, -48.988
 650.2000, -48.922
 650.4000, -48.971
 650.6000, -48.955
 650.8000, -48.952
 651.0000, -48.898
 651.2000, -48.792
 651.4000, -48.800
 651.6000, -48.763
 651.8000, -48.798
 652.0000, -48.882
 652.2000, -48.679
 652.4000, -48.720
 652.6000, -48.638
 652.8000, -48.623
 653.0000, -48.573
 653.2000, -48.605
 653.4000, -48.665
 653.6000, -48.652
 653.8000, -48.540
 654.0000, -48.581
 654.2000, -48.592
 654.4000, -48.592
 654.6000, -48.548
 654.8000, -48.663
 655.0000, -48.434
 655.2000, -48.440
 655.4000, -48.429
 655.6000, -48.488
 655.8000, -48.521
 656.0000, -48.492
 656.2000, -48.500
 656.4000, -48.415
 656.6000, -48.404
 656.8000, -48.370
 657.0000, -48.277
 657.2000, -48.372
 657.4000, -48.370
 657.6000, -48.285
 657.8000, -48.286
 658.0000, -48.426
 658.2000, -48.295
 658.4000, -48.262
 658.6000, -48.106
 658.8000, -48.272
 659.0000, -48.084
 659.2000, -48.232
 659.4000, -48.148
 659.6000, -48.156
 659.8000, -48.085
 660.0000, -48.212
 660.2000, -48.149
 660.4000, -48.071
 660.6000, -48.179
 660.8000, -48.102
 661.0000, -48.112
 661.2000, -48.090
 661.4000, -48.232
 661.6000, -48.109
 661.8000, -47.959
 662.0000, -47.936
 662.2000, -47.947
 662.4000, -48.012
 662.6000, -47.894
 662.8000, -48.044
 663.0000, -48.014
 663.2000, -47.932
 663.4000, -47.956
 663.6000, -47.910
 663.8000, -47.901
 664.0000, -47.796
 664.2000, -47.737
 664.4000, -47.788
 664.6000, -47.911
 664.8000, -47.942
 665.0000, -47.748
 665.2000, -47.810
 665.4000, -47.683
 665.6000, -47.790
 665.8000, -47.786
 666.0000, -47.700
 666.2000, -47.754
 666.4000, -47.750
 666.6000, -47.695
 666.8000, -47.805
 667.0000, -47.659
 667.2000, -47.761
 667.4000, -47.593
 667.6000, -47.562
 667.8000, -47.727
 668.0000, -47.566
 668.2000, -47.762
 668.4000, -47.752
 668.6000, -47.583
 668.8000, -47.744
 669.0000, -47.588
 669.2000, -47.649
 669.4000, -47.696
 669.6000, -47.628
 669.8000, -47.759
 670.0000, -47.465
 670.2000, -47.585
 670.4000, -47.534
 670.6000, -47.583
 670.8000, -47.566
 671.0000, -47.562
 671.2000, -47.571
 671.4000, -47.569
 671.6000, -47.545
 671.8000, -47.542
 672.0000, -47.485
 672.2000, -47.539
 672.4000, -47.590
 672.6000, -47.392
 672.8000, -47.494
 673.0000, -47.411
 673.2000, -47.554
 673.4000, -47.584
 673.6000, -47.495
 673.8000, -47.376
 674.0000, -47.525
 674.2000, -47.444
 674.4000, -47.616
 674.6000, -47.544
 674.8000, -47.480
 675.0000, -47.471
 675.2000, -47.524
 675.4000, -47.516
 675.6000, -47.395
 675.8000, -47.479
 676.0000, -47.466
 676.2000, -47.420
 676.4000, -47.432
 676.6000, -47.444
 676.8000, -47.497
 677.0000, -47.439
 677.2000, -47.494
 677.4000, -47.391
 677.6000, -47.434
 677.8000, -47.427
 678.0000, -47.480
 678.2000, -47.417
 678.4000, -47.352
 678.6000, -47.364
 678.8000, -47.391
 679.0000, -47.415
 679.2000, -47.484
 679.4000, -47.341
 679.6000, -47.377
 679.8000, -47.290
 680.0000, -47.358
 680.2000, -47.313
 680.4000, -47.433
 680.6000, -47.290
 680.8000, -47.325
 681.0000, -47.301
 681.2000, -47.349
 681.4000, -47.250
 681.6000, -47.335
 681.8000, -47.258
 682.0000, -47.186
 682.2000, -47.227
 682.4000, -47.252
 682.6000, -47.308
 682.8000, -47.305
 683.0000, -47.320
 683.2000, -47.249
 683.4000, -47.248
 683.6000, -47.286
 683.8000, -47.292
 684.0000, -47.382
 684.2000, -47.391
 684.4000, -47.249
 684.6000, -47.313
 684.8000, -47.278
 685.0000, -47.318
 685.2000, -47.287
 685.4000, -47.289
 685.6000, -47.334
 685.8000, -47.407
 686.0000, -47.349
 686.2000, -47.248
 686.4000, -47.325
 686.6000, -47.251
 686.8000, -47.340
 687.0000, -47.191
 687.2000, -47.348
 687.4000, -47.336
 687.6000, -47.400
 687.8000, -47.433
 688.0000, -47.324
 688.2000, -47.301
 688.4000, -47.186
 688.6000, -47.253
 688.8000, -47.223
 689.0000, -47.345
 689.2000, -47.316
 689.4000, -47.158
 689.6000, -47.292
 689.8000, -47.292
 690.0000, -47.400
 690.2000, -47.340
 690.4000, -47.249
 690.6000, -47.206
 690.8000, -47.281
 691.0000, -47.310
 691.2000, -47.318
 691.4000, -47.316
 691.6000, -47.299
 691.8000, -47.340
 692.0000, -47.334
 692.2000, -47.279
 692.4000, -47.320
 692.6000, -47.343
 692.8000, -47.338
 693.0000, -47.259
 693.2000, -47.343
 693.4000, -47.349
 693.6000, -47.328
 693.8000, -47.253
 694.0000, -47.343
 694.2000, -47.313
 694.4000, -47.242
 694.6000, -47.354
 694.8000, -47.342
 695.0000, -47.332
 695.2000, -47.289
 695.4000, -47.336
 695.6000, -47.344
 695.8000, -47.401
 696.0000, -47.313
 696.2000, -47.330
 696.4000, -47.267
 696.6000, -47.303
 696.8000, -47.328
 697.0000, -47.365
 697.2000, -47.421
 697.4000, -47.438
 697.6000, -47.379
 697.8000, -47.351
 698.0000, -47.291
 698.2000, -47.415
 698.4000, -47.457
 698.6000, -47.491
 698.8000, -47.457
 699.0000, -47.463
 699.2000, -47.503
 699.4000, -47.456
 699.6000, -47.496
 699.8000, -47.500
 700.0000, -47.495
 700.2000, -47.482
 700.4000, -47.469
 700.6000, -47.524
 700.8000, -47.525
 701.0000, -47.588
 701.2000, -47.534
 701.4000, -47.552
 701.6000, -47.569
 701.8000, -47.542
 702.0000, -47.608
 702.2000, -47.507
 702.4000, -47.633
 702.6000, -47.614
 702.8000, -47.530
 703.0000, -47.504
 703.2000, -47.644
 703.4000, -47.538
 703.6000, -47.614
 703.8000, -47.704
 704.0000, -47.592
 704.2000, -47.483
 704.4000, -47.599
 704.6000, -47.682
 704.8000, -47.747
 705.0000, -47.605
 705.2000, -47.686
 705.4000, -47.667
 705.6000, -47.583
 705.8000, -47.798
 706.0000, -47.736
 706.2000, -47.802
 706.4000, -47.731
 706.6000, -47.824
 706.8000, -47.649
 707.0000, -47.806
 707.2000, -47.759
 707.4000, -47.785
 707.6000, -47.814
 707.8000, -47.667
 708.0000, -47.793
 708.2000, -47.698
 708.4000, -47.905
 708.6000, -47.805
 708.8000, -47.796
 709.0000, -47.693
 709.2000, -47.848
 709.4000, -47.835
 709.6000, -47.758
 709.8000, -47.919
 710.0000, -47.860
 710.2000, -48.031
 710.4000, -48.078
 710.6000, -47.859
 710.8000, -47.908
 711.0000, -47.986
 711.2000, -48.010
 711.4000, -48.078
 711.6000, -48.076
 711.8000, -48.028
 712.0000, -47.993
 712.2000, -47.999
 712.4000, -48.063
 712.6000, -48.041
 712.8000, -47.970
 713.0000, -48.022
 713.2000, -48.064
 713.4000, -48.025
 713.6000, -48.008
 713.8000, -48.118
 714.0000, -48.088
 714.2000, -48.106
 714.4000, -48.132
 714.6000, -48.155
 714.8000, -48.148
 715.0000, -48.136
 715.2000, -48.181
 715.4000, -48.157
 715.6000, -48.258
 715.8000, -48.312
 716.0000, -48.251
 716.2000, -48.250
 716.4000, -48.138
 716.6000, -48.263
 716.8000, -48.301
 717.0000, -48.105
 717.2000, -48.243
 717.4000, -48.248
 717.6000, -48.258
 717.8000, -48.348
 718.0000, -48.327
 718.2000, -48.339
 718.4000, -48.262
 718.6000, -48.323
 718.8000, -48.432
 719.0000, -48.430
 719.2000, -48.517
 719.4000, -48.450
 719.6000, -48.432
 719.8000, -48.534
 720.0000, -48.518
 720.2000, -48.514
 720.4000, -48.399
 720.6000, -48.377
 720.8000, -48.534
 721.0000, -48.493
 721.2000, -48.605
 721.4000, -48.560
 721.6000, -48.560
 721.8000, -48.489
 722.0000, -48.594
 722.2000, -48.523
 722.4000, -48.629
 722.6000, -48.511
 722.8000, -48.565
 723.0000, -48.633
 723.2000, -48.651
 723.4000, -48.637
 723.6000, -48.576
 723.8000, -48.660
 724.0000, -48.552
 724.2000, -48.694
 724.4000, -48.667
 724.6000, -48.865
 724.8000, -48.743
 725.0000, -48.755
 725.2000, -48.959
 725.4000, -48.891
 725.6000, -48.825
 725.8000, -48.797
 726.0000, -48.852
 726.2000, -48.838
 726.4000, -48.810
 726.6000, -48.864
 726.8000, -48.976
 727.0000, -48.944
 727.2000, -48.881
 727.4000, -48.916
 727.6000, -48.885
 727.8000, -48.945
 728.0000, -48.912
 728.2000, -49.005
 728.4000, -49.064
 728.6000, -49.011
 728.8000, -49.064
 729.0000, -48.966
 729.2000, -49.030
 729.4000, -49.035
 729.6000, -49.071
 729.8000, -49.023
 730.0000, -48.965
 730.2000, -49.047
 730.4000, -49.098
 730.6000, -49.060
 730.8000, -49.154
 731.0000, -49.102
 731.2000, -49.126
 731.4000, -49.194
 731.6000, -49.022
 731.8000, -49.167
 732.0000, -49.099
 732.2000, -49.112
 732.4000, -49.157
 732.6000, -49.213
 732.8000, -49.290
 733.0000, -49.020
 733.2000, -49.167
 733.4000, -49.287
 733.6000, -49.192
 733.8000, -49.274
 734.0000, -49.313
 734.2000, -49.250
 734.4000, -49.288
 734.6000, -49.258
 734.8000, -49.332
 735.0000, -49.348
 735.2000, -49.352
 735.4000, -49.372
 735.6000, -49.343
 735.8000, -49.405
 736.0000, -49.365
 736.2000, -49.360
 736.4000, -49.348
 736.6000, -49.449
 736.8000, -49.425
 737.0000, -49.478
 737.2000, -49.398
 737.4000, -49.451
 737.6000, -49.454
 737.8000, -49.482
 738.0000, -49.510
 738.2000, -49.449
 738.4000, -49.603
 738.6000, -49.438
 738.8000, -49.570
 739.0000, -49.528
 739.2000, -49.525
 739.4000, -49.481
 739.6000, -49.699
 739.8000, -49.544
 740.0000, -49.598
 740.2000, -49.584
 740.4000, -49.497
 740.6000, -49.593
 740.8000, -49.645
 741.0000, -49.618
 741.2000, -49.691
 741.4000, -49.755
 741.6000, -49.581
 741.8000, -49.691
 742.0000, -49.660
 742.2000, -49.711
 742.4000, -49.664
 742.6000, -49.660
 742.8000, -49.877
 743.0000, -49.761
 743.2000, -49.900
 743.4000, -49.910
 743.6000, -49.717
 743.8000, -49.862
 744.0000, -49.824
 744.2000, -49.777
 744.4000, -49.804
 744.6000, -49.856
 744.8000, -49.822
 745.0000, -49.812
 745.2000, -49.795
 745.4000, -49.898
 745.6000, -50.069
 745.8000, -50.002
 746.0000, -50.036
 746.2000, -49.929
 746.4000, -49.982
 746.6000, -49.861
 746.8000, -49.934
 747.0000, -49.961
 747.2000, -49.982
 747.4000, -50.045
 747.6000, -50.111
 747.8000, -50.056
 748.0000, -49.958
 748.2000, -49.999
 748.4000, -50.049
 748.6000, -50.153
 748.8000, -50.157
 749.0000, -49.935
 749.2000, -50.140
 749.4000, -50.078
 749.6000, -50.129
 749.8000, -50.099
 750.0000, -50.046
 750.2000, -50.134
 750.4000, -50.156
 750.6000, -50.191
 750.8000, -50.198
 751.0000, -50.207
 751.2000, -50.203
 751.4000, -50.179
 751.6000, -50.319
 751.8000, -50.089
 752.0000, -50.200
 752.2000, -50.251
 752.4000, -50.287
 752.6000, -50.350
 752.8000, -50.332
 753.0000, -50.377
 753.2000, -50.299
 753.4000, -50.211
 753.6000, -50.419
 753.8000, -50.332
 754.0000, -50.267
 754.2000, -50.390
 754.4000, -50.280
 754.6000, -50.390
 754.8000, -50.362
 755.0000, -50.359
 755.2000, -50.448
 755.4000, -50.474
 755.6000, -50.607
 755.8000, -50.472
 756.0000, -50.594
 756.2000, -50.434
 756.4000, -50.378
 756.6000, -50.591
 756.8000, -50.428
 757.0000, -50.493
 757.2000, -50.556
 757.4000, -50.493
 757.6000, -50.521
 757.8000, -50.529
 758.0000, -50.627
 758.2000, -50.462
 758.4000, -50.409
 758.6000, -50.490
 758.8000, -50.615
 759.0000, -50.694
 759.2000, -50.527
 759.4000, -50.719
 759.6000, -50.654
 759.8000, -50.697
 760.0000, -50.649
 760.2000, -50.715
 760.4000, -50.772
 760.6000, -50.757
 760.8000, -50.745
 761.0000, -50.771
 761.2000, -50.810
 761.4000, -50.740
 761.6000, -50.705
 761.8000, -50.830
 762.0000, -50.698
 762.2000, -50.759
 762.4000, -50.768
 762.6000, -50.869
 762.8000, -50.753
 763.0000, -50.920
 763.2000, -50.800
 763.4000, -50.773
 763.6000, -50.834
 763.8000, -51.003
 764.0000, -50.985
 764.2000, -50.893
 764.4000, -50.982
 764.6000, -50.822
 764.8000, -51.028
 765.0000, -50.822
 765.2000, -50.978
 765.4000, -50.965
 765.6000, -51.027
 765.8000, -50.964
 766.0000, -50.978
 766.2000, -50.989
 766.4000, -51.098
 766.6000, -50.989
 766.8000, -51.143
 767.0000, -50.991
 767.2000, -51.079
 767.4000, -51.045
 767.6000, -51.132
 767.8000, -51.131
 768.0000, -51.208
 768.2000, -51.105
 768.4000, -51.187
 768.6000, -51.138
 768.8000, -51.179
 769.0000, -51.185
 769.2000, -51.221
 769.4000, -51.360
 769.6000, -51.212
 769.8000, -51.233
 770.0000, -51.133
 770.2000, -51.151
 770.4000, -51.159
 770.6000, -51.265
 770.8000, -51.283
 771.0000, -51.334
 771.2000, -51.290
 771.4000, -51.337
 771.6000, -51.364
 771.8000, -51.343
 772.0000, -51.199
 772.2000, -51.391
 772.4000, -51.410
 772.6000, -51.481
 772.8000, -51.363
 773.0000, -51.288
 773.2000, -51.375
 773.4000, -51.480
 773.6000, -51.354
 773.8000, -51.479
 774.0000, -51.488
 774.2000, -51.558
 774.4000, -51.422
 774.6000, -51.468
 774.8000, -51.558
 775.0000, -51.403
 775.2000, -51.649
 775.4000, -51.530
 775.6000, -51.637
 775.8000, -51.508
 776.0000, -51.684
 776.2000, -51.552
 776.4000, -51.770
 776.6000, -51.536
 776.8000, -51.605
 777.0000, -51.693
 777.2000, -51.563
 777.4000, -51.682
 777.6000, -51.521
 777.8000, -51.877
 778.0000, -51.669
 778.2000, -51.628
 778.4000, -51.740
 778.6000, -51.773
 778.8000, -51.759
 779.0000, -51.679
 779.2000, -51.856
 779.4000, -51.704
 779.6000, -51.873
 779.8000, -51.856
 780.0000, -51.834
 780.2000, -51.883
 780.4000, -51.681
 780.6000, -51.962
 780.8000, -51.939
 781.0000, -51.947
 781.2000, -51.915
 781.4000, -51.899
 781.6000, -51.885
 781.8000, -51.928
 782.0000, -51.989
 782.2000, -51.995
 782.4000, -52.000
 782.6000, -52.060
 782.8000, -51.863
 783.0000, -52.060
 783.2000, -51.891
 783.4000, -52.027
 783.6000, -51.983
 783.8000, -52.078
 784.0000, -52.218
 784.2000, -52.061
 784.4000, -52.085
 784.6000, -52.188
 784.8000, -52.099
 785.0000, -52.234
 785.2000, -52.126
 785.4000, -52.252
 785.6000, -52.284
 785.8000, -52.242
 786.0000, -52.262
 786.2000, -52.207
 786.4000, -52.270
 786.6000, -52.345
 786.8000, -52.233
 787.0000, -52.284
 787.2000, -52.189
 787.4000, -52.321
 787.6000, -52.386
 787.8000, -52.334
 788.0000, -52.343
 788.2000, -52.347
 788.4000, -52.376
 788.6000, -52.287
 788.8000, -52.315
 789.0000, -52.372
 789.2000, -52.402
 789.4000, -52.431
 789.6000, -52.493
 789.8000, -52.529
 790.0000, -52.567
 790.2000, -52.555
 790.4000, -52.405
 790.6000, -52.535
 790.8000, -52.586
 791.0000, -52.590
 791.2000, -52.693
 791.4000, -52.504
 791.6000, -52.441
 791.8000, -52.579
 792.0000, -52.671
 792.2000, -52.605
 792.4000, -52.703
 792.6000, -52.529
 792.8000, -52.668
 793.0000, -52.708
 793.2000, -52.533
 793.4000, -52.747
 793.6000, -52.744
 793.8000, -52.755
 794.0000, -52.747
 794.2000, -52.735
 794.4000, -52.836
 794.6000, -52.673
 794.8000, -52.754
 795.0000, -52.916
 795.2000, -52.826
 795.4000, -52.790
 795.6000, -52.858
 795.8000, -52.888
 796.0000, -52.806
 796.2000, -52.754
 796.4000, -52.992
 796.6000, -52.892
 796.8000, -52.856
 797.0000, -53.065
 797.2000, -52.895
 797.4000, -53.127
 797.6000, -52.993
 797.8000, -53.017
 798.0000, -53.054
 798.2000, -53.124
 798.4000, -53.124
 798.6000, -53.024
 798.8000, -53.018
 799.0000, -53.207
 799.2000, -53.025
 799.4000, -53.206
 799.6000, -53.200
 799.8000, -53.133
 800.0000, -53.189
 800.2000, -53.207
 800.4000, -53.150
 800.6000, -53.271
 800.8000, -53.297
 801.0000, -53.199
 801.2000, -53.179
 801.4000, -53.295
 801.6000, -53.258
 801.8000, -53.170
 802.0000, -53.190
 802.2000, -53.316
 802.4000, -53.381
 802.6000, -53.397
 802.8000, -53.404
 803.0000, -53.360
 803.2000, -53.338
 803.4000, -53.323
 803.6000, -53.460
 803.8000, -53.399
 804.0000, -53.641
 804.2000, -53.472
 804.4000, -53.325
 804.6000, -53.462
 804.8000, -53.465
 805.0000, -53.374
 805.2000, -53.380
 805.4000, -53.563
 805.6000, -53.568
 805.8000, -53.460
 806.0000, -53.659
 806.2000, -53.692
 806.4000, -53.505
 806.6000, -53.622
 806.8000, -53.760
 807.0000, -53.484
 807.2000, -53.560
 807.4000, -53.597
 807.6000, -53.637
 807.8000, -53.513
 808.0000, -53.753
 808.2000, -53.765
 808.4000, -53.618
 808.6000, -53.533
 808.8000, -53.699
 809.0000, -53.824
 809.2000, -53.572
 809.4000, -53.766
 809.6000, -53.915
 809.8000, -53.777
 810.0000, -53.704
 810.2000, -53.813
 810.4000, -54.021
 810.6000, -53.810
 810.8000, -53.817
 811.0000, -54.038
 811.2000, -54.086
 811.4000, -53.722
 811.6000, -53.897
 811.8000, -54.046
 812.0000, -53.995
 812.2000, -53.873
 812.4000, -53.834
 812.6000, -54.134
 812.8000, -53.977
 813.0000, -53.994
 813.2000, -54.021
 813.4000, -54.307
 813.6000, -54.181
 813.8000, -54.010
 814.0000, -54.039
 814.2000, -54.411
 814.4000, -54.110
 814.6000, -53.836
 814.8000, -54.214
 815.0000, -54.500
 815.2000, -54.072
 815.4000, -53.974
 815.6000, -54.238
 815.8000, -54.376
 816.0000, -54.245
 816.2000, -54.044
 816.4000, -54.240
 816.6000, -54.565
 816.8000, -54.230
 817.0000, -54.064
 817.2000, -54.231
 817.4000, -54.608
 817.6000, -54.411
 817.8000, -54.094
 818.0000, -54.144
 818.2000, -54.521
 818.4000, -54.569
 818.6000, -54.136
 818.8000, -54.234
 819.0000, -54.662
 819.2000, -54.729
 819.4000, -54.361
 819.6000, -54.206
 819.8000, -54.567
 820.0000, -54.701
 820.2000, -54.540
 820.4000, -54.344
 820.6000, -54.359
 820.8000, -54.554
 821.0000, -54.804
 821.2000, -54.421
 821.4000, -54.489
 821.6000, -54.703
 821.8000, -54.918
 822.0000, -54.712
 822.2000, -54.412
 822.4000, -54.426
 822.6000, -54.848
 822.8000, -54.888
 823.0000, -54.473
 823.2000, -54.564
 823.4000, -54.797
 823.6000, -54.955
 823.8000, -54.812
 824.0000, -54.407
 824.2000, -54.456
 824.4000, -54.949
 824.6000, -55.049
 824.8000, -54.772
 825.0000, -54.551
 825.2000, -54.705
 825.4000, -54.849
 825.6000, -55.133
 825.8000, -54.682
 826.0000, -54.719
 826.2000, -54.917
 826.4000, -55.019
 826.6000, -55.042
 826.8000, -54.677
 827.0000, -54.606
 827.2000, -54.894
 827.4000, -55.124
 827.6000, -55.230
 827.8000, -54.998
 828.0000, -54.834
 828.2000, -54.965
 828.4000, -55.094
 828.6000, -55.215
 828.8000, -54.878
 829.0000, -54.952
 829.2000, -54.959
 829.4000, -55.302
 829.6000, -55.209
 829.8000, -55.018
 830.0000, -54.874
 830.2000, -55.061
 830.4000, -55.176
 830.6000, -55.248
 830.8000, -55.083
 831.0000, -54.987
 831.2000, -55.080
 831.4000, -55.335
 831.6000, -55.343
 831.8000, -55.215
 832.0000, -55.092
 832.2000, -55.092
 832.4000, -55.059
 832.6000, -55.274
 832.8000, -55.258
 833.0000, -55.318
 833.2000, -55.265
 833.4000, -55.240
 833.6000, -55.284
 833.8000, -55.310
 834.0000, -55.548
 834.2000, -55.380
 834.4000, -55.260
 834.6000, -55.266
 834.8000, -55.257
 835.0000, -55.229
 835.2000, -55.433
 835.4000, -55.329
 835.6000, -55.531
 835.8000, -55.380
 836.0000, -55.325
 836.2000, -55.508
 836.4000, -55.495
 836.6000, -55.534
 836.8000, -55.465
 837.0000, -55.392
 837.2000, -55.365
 837.4000, -55.271
 837.6000, -55.485
 837.8000, -55.644
 838.0000, -55.688
 838.2000, -55.581
 838.4000, -55.405
 838.6000, -55.468
 838.8000, -55.490
 839.0000, -55.763
 839.2000, -55.741
 839.4000, -55.677
 839.6000, -55.488
 839.8000, -55.344
 840.0000, -55.488
 840.2000, -55.730
 840.4000, -55.959
 840.6000, -55.787
 840.8000, -55.589
 841.0000, -55.320
 841.2000, -55.558
 841.4000, -55.762
 841.6000, -55.996
 841.8000, -55.931
 842.0000, -55.902
 842.2000, -55.582
 842.4000, -55.352
 842.6000, -55.591
 842.8000, -55.864
 843.0000, -56.148
 843.2000, -56.074
 843.4000, -55.850
 843.6000, -55.492
 843.8000, -55.440
 844.0000, -55.772
 844.2000, -56.099
 844.4000, -56.284
 844.6000, -56.211
 844.8000, -55.780
 845.0000, -55.513
 845.2000, -55.537
 845.4000, -55.841
 845.6000, -56.295
 845.8000, -56.491
 846.0000, -56.269
 846.2000, -55.933
 846.4000, -55.578
 846.6000, -55.531
 846.8000, -55.842
 847.0000, -56.160
 847.2000, -56.532
 847.4000, -56.526
 847.6000, -56.155
 847.8000, -55.748
 848.0000, -55.481
 848.2000, -55.695
 848.4000, -56.020
 848.6000, -56.442
 848.8000, -56.845
 849.0000, -56.595
 849.2000, -56.041
 849.4000, -55.758
 849.6000, -55.594
 849.8000, -55.817
 850.0000, -56.317
 850.2000, -56.822
 850.4000, -57.013
 850.6000, -56.512
 850.8000, -56.318
 851.0000, -55.647
 851.2000, -55.418
 851.4000, -55.849
 851.6000, -56.545
 851.8000, -57.070
 852.0000, -57.035
 852.2000, -56.705
 852.4000, -56.131
 852.6000, -55.810
 852.8000, -55.517
 853.0000, -55.787
 853.2000, -56.166
 853.4000, -56.780
 853.6000, -57.242
 853.8000, -57.119
 854.0000, -56.543
 854.2000, -56.025
 854.4000, -55.705
 854.6000, -55.809
 854.8000, -56.072
 855.0000, -56.576
 855.2000, -57.066
 855.4000, -57.235
 855.6000, -57.011
 855.8000, -56.707
 856.0000, -56.018
 856.2000, -55.748
 856.4000, -55.707
 856.6000, -56.037
 856.8000, -56.547
 857.0000, -57.223
 857.2000, -57.396
 857.4000, -57.396
 857.6000, -56.837
 857.8000, -56.213
 858.0000, -55.946
 858.2000, -55.691
 858.4000, -55.869
 858.6000, -56.434
 858.8000, -57.046
 859.0000, -57.497
 859.2000, -57.344
 859.4000, -57.166
 859.6000, -56.670
 859.8000, -56.149
 860.0000, -55.936
 860.2000, -55.884
 860.4000, -56.148
 860.6000, -56.563
 860.8000, -57.094
 861.0000, -57.346
 861.2000, -57.551
 861.4000, -57.354
 861.6000, -56.861
 861.8000, -56.399
 862.0000, -56.088
 862.2000, -56.025
 862.4000, -56.178
 862.6000, -56.470
 862.8000, -56.875
 863.0000, -57.339
 863.2000, -57.600
 863.4000, -57.587
 863.6000, -57.385
 863.8000, -56.948
 864.0000, -56.393
 864.2000, -56.228
 864.4000, -56.120
 864.6000, -56.166
 864.8000, -56.604
 865.0000, -56.995
 865.2000, -57.432
 865.4000, -57.682
 865.6000, -57.714
 865.8000, -57.551
 866.0000, -56.945
 866.2000, -56.774
 866.4000, -56.475
 866.6000, -56.425
 866.8000, -56.365
 867.0000, -56.532
 867.2000, -56.885
 867.4000, -57.241
 867.6000, -57.442
 867.8000, -57.598
 868.0000, -57.585
 868.2000, -57.502
 868.4000, -57.260
 868.6000, -56.757
 868.8000, -56.653
 869.0000, -56.607
 869.2000, -56.293
 869.4000, -56.598
 869.6000, -56.810
 869.8000, -56.966
 870.0000, -57.287
 870.2000, -57.655
 870.4000, -57.669
 870.6000, -57.730
 870.8000, -57.453
 871.0000, -57.173
 871.2000, -56.990
 871.4000, -56.902
 871.6000, -56.714
 871.8000, -56.589
 872.0000, -56.752
 872.2000, -56.958
 872.4000, -57.227
 872.6000, -57.200
 872.8000, -57.364
 873.0000, -57.512
 873.2000, -57.512
 873.4000, -57.576
 873.6000, -57.421
 873.8000, -57.313
 874.0000, -57.238
 874.2000, -57.100
 874.4000, -56.994
 874.6000, -57.105
 874.8000, -57.147
 875.0000, -56.919
 875.2000, -57.182
 875.4000, -57.100
 875.6000, -57.288
 875.8000, -57.315
 876.0000, -57.372
 876.2000, -57.359
 876.4000, -57.451
 876.6000, -57.505
 876.8000, -57.519
 877.0000, -57.336
 877.2000, -57.463
 877.4000, -57.336
 877.6000, -57.273
 877.8000, -57.377
 878.0000, -57.419
 878.2000, -57.391
 878.4000, -57.431
 878.6000, -57.408
 878.8000, -57.380
 879.0000, -57.246
 879.2000, -57.239
 879.4000, -57.209
 879.6000, -57.179
 879.8000, -57.225
 880.0000, -57.480
 880.2000, -57.429
 880.4000, -57.650
 880.6000, -57.480
 880.8000, -57.609
 881.0000, -57.690
 881.2000, -57.872
 881.4000, -57.945
 881.6000, -57.862
 881.8000, -57.813
 882.0000, -57.539
 882.2000, -57.641
 882.4000, -57.564
 882.6000, -57.492
 882.8000, -57.365
 883.0000, -57.078
 883.2000, -57.083
 883.4000, -57.204
 883.6000, -56.952
 883.8000, -57.198
 884.0000, -57.252
 884.2000, -57.448
 884.4000, -57.555
 884.6000, -57.573
 884.8000, -57.709
 885.0000, -57.973
 885.2000, -58.187
 885.4000, -58.289
 885.6000, -58.323
 885.8000, -58.358
 886.0000, -58.597
 886.2000, -58.176
 886.4000, -58.205
 886.6000, -57.988
 886.8000, -57.803
 887.0000, -57.496
 887.2000, -57.398
 887.4000, -57.118
 887.6000, -57.122
 887.8000, -56.955
 888.0000, -56.938
 888.2000, -56.814
 888.4000, -56.798
 888.6000, -56.912
 888.8000, -56.993
 889.0000, -57.306
 889.2000, -57.243
 889.4000, -57.560
 889.6000, -57.907
 889.8000, -58.204
 890.0000, -58.345
 890.2000, -58.718
 890.4000, -58.911
 890.6000, -59.117
 890.8000, -59.221
 891.0000, -59.289
 891.2000, -59.150
 891.4000, -59.149
 891.6000, -59.003
 891.8000, -58.815
 892.0000, -58.327
 892.2000, -58.306
 892.4000, -57.968
 892.6000, -57.597
 892.8000, -57.314
 893.0000, -57.163
 893.2000, -56.869
 893.4000, -56.728
 893.6000, -56.654
 893.8000, -56.461
 894.0000, -56.453
 894.2000, -56.352
 894.4000, -56.488
 894.6000, -56.703
 894.8000, -56.723
 895.0000, -56.825
 895.2000, -56.943
 895.4000, -57.164
 895.6000, -57.510
 895.8000, -57.526
 896.0000, -57.954
 896.2000, -58.156
 896.4000, -58.669
 896.6000, -58.990
 896.8000, -59.352
 897.0000, -59.494
 897.2000, -59.790
 897.4000, -60.064
 897.6000, -60.256
 897.8000, -60.619
 898.0000, -60.755
 898.2000, -60.791
 898.4000, -60.741
 898.6000, -60.579
 898.8000, -60.587
 899.0000, -60.354
 899.2000, -60.129
 899.4000, -59.786
 899.6000, -59.209
 899.8000, -59.150
 900.0000, -59.076
 900.2000, -58.689
 900.4000, -58.451
 900.6000, -58.248
 900.8000, -57.882
 901.0000, -57.645
 901.2000, -57.448
 901.4000, -57.377
 901.6000, -57.192
 901.8000, -56.924
 902.0000, -56.871
 902.2000, -56.739
 902.4000, -56.589
 902.6000, -56.576
 902.8000, -56.533
 903.0000, -56.495
 903.2000, -56.285
 903.4000, -56.393
 903.6000, -56.216
 903.8000, -56.233
 904.0000, -56.221
 904.2000, -56.252
 904.4000, -56.314
 904.6000, -56.366
 904.8000, -56.427
 905.0000, -56.254
 905.2000, -56.434
 905.4000, -56.474
 905.6000, -56.649
 905.8000, -56.520
 906.0000, -56.815
 906.2000, -56.718
 906.4000, -56.714
 906.6000, -56.980
 906.8000, -56.953
 907.0000, -57.156
 907.2000, -57.149
 907.4000, -57.044
 907.6000, -57.406
 907.8000, -57.526
 908.0000, -57.605
 908.2000, -57.723
 908.4000, -57.762
 908.6000, -57.784
 908.8000, -57.917
 909.0000, -58.072
 909.2000, -58.227
 909.4000, -58.396
 909.6000, -58.245
 909.8000, -58.433
 910.0000, -58.452
 910.2000, -58.556
 910.4000, -58.739
 910.6000, -58.720
 910.8000, -58.873
 911.0000, -58.812
 911.2000, -58.904
 911.4000, -59.086
 911.6000, -59.061
 911.8000, -59.140
 912.0000, -58.994
 912.2000, -59.036
 912.4000, -59.221
 912.6000, -59.205
 912.8000, -59.396
 913.0000, -59.322
 913.2000, -59.322
 913.4000, -59.241
 913.6000, -59.218
 913.8000, -59.392
 914.0000, -59.401
 914.2000, -59.203
 914.4000, -59.188
 914.6000, -59.244
 914.8000, -59.083
 915.0000, -58.993
 915.2000, -58.823
 915.4000, -59.064
 915.6000, -59.000
 915.8000, -58.846
 916.0000, -58.833
 916.2000, -58.695
 916.4000, -58.633
 916.6000, -58.468
 916.8000, -58.535
 917.0000, -58.294
 917.2000, -58.253
 917.4000, -58.149
 917.6000, -58.057
 917.8000, -57.946
 918.0000, -57.819
 918.2000, -57.775
 918.4000, -57.564
 918.6000, -57.607
 918.8000, -57.486
 919.0000, -57.436
 919.2000, -57.286
 919.4000, -57.209
 919.6000, -57.090
 919.8000, -56.947
 920.0000, -56.753
 920.2000, -56.842
 920.4000, -56.945
 920.6000, -56.610
 920.8000, -56.650
 921.0000, -56.560
 921.2000, -56.622
 921.4000, -56.471
 921.6000, -56.527
 921.8000, -56.352
 922.0000, -56.341
 922.2000, -56.475
 922.4000, -56.438
 922.6000, -56.441
 922.8000, -56.291
 923.0000, -56.460
 923.2000, -56.499
 923.4000, -56.286
 923.6000, -56.509
 923.8000, -56.644
 924.0000, -56.628
 924.2000, -56.795
 924.4000, -56.918
 924.6000, -57.121
 924.8000, -57.214
 925.0000, -57.253
 925.2000, -57.531
 925.4000, -57.677
 925.6000, -57.746
 925.8000, -58.219
 926.0000, -58.454
 926.2000, -58.813
 926.4000, -58.919
 926.6000, -59.204
 926.8000, -59.807
 927.0000, -59.957
 927.2000, -60.567
 927.4000, -60.884
 927.6000, -61.190
 927.8000, -61.683
 928.0000, -61.918
 928.2000, -62.634
 928.4000, -62.807
 928.6000, -63.163
 928.8000, -63.346
 929.0000, -63.408
 929.2000, -63.534
 929.4000, -63.383
 929.6000, -63.337
 929.8000, -63.077
 930.0000, -62.471
 930.2000, -62.204
 930.4000, -61.684
 930.6000, -61.205
 930.8000, -60.849
 931.0000, -60.621
 931.2000, -59.951
 931.4000, -59.656
 931.6000, -59.108
 931.8000, -58.863
 932.0000, -58.418
 932.2000, -58.171
 932.4000, -57.956
 932.6000, -57.717
 932.8000, -57.524
 933.0000, -57.392
 933.2000, -57.309
 933.4000, -57.291
 933.6000, -57.164
 933.8000, -57.112
 934.0000, -57.055
 934.2000, -57.313
 934.4000, -57.525
 934.6000, -57.532
 934.8000, -57.552
 935.0000, -57.818
 935.2000, -57.961
 935.4000, -58.337
 935.6000, -58.619
 935.8000, -59.021
 936.0000, -59.510
 936.2000, -59.944
 936.4000, -60.368
 936.6000, -60.600
 936.8000, -61.049
 937.0000, -61.396
 937.2000, -61.798
 937.4000, -62.206
 937.6000, -62.451
 937.8000, -62.423
 938.0000, -62.395
 938.2000, -61.948
 938.4000, -61.893
 938.6000, -61.480
 938.8000, -60.924
 939.0000, -60.447
 939.2000, -59.971
 939.4000, -59.595
 939.6000, -59.439
 939.8000, -59.018
 940.0000, -58.666
 940.2000, -58.537
 940.4000, -58.190
 940.6000, -58.044
 940.8000, -58.014
 941.0000, -58.005
 941.2000, -57.844
 941.4000, -58.024
 941.6000, -58.000
 941.8000, -58.107
 942.0000, -58.374
 942.2000, -58.493
 942.4000, -58.730
 942.6000, -59.168
 942.8000, -59.595
 943.0000, -59.795
 943.2000, -59.996
 943.4000, -60.428
 943.6000, -60.710
 943.8000, -61.027
 944.0000, -61.369
 944.2000, -61.587
 944.4000, -61.479
 944.6000, -61.528
 944.8000, -61.174
 945.0000, -61.061
 945.2000, -60.583
 945.4000, -60.359
 945.6000, -59.914
 945.8000, -59.784
 946.0000, -59.662
 946.2000, -59.150
 946.4000, -59.147
 946.6000, -58.870
 946.8000, -58.617
 947.0000, -58.905
 947.2000, -58.707
 947.4000, -58.676
 947.6000, -58.797
 947.8000, -59.017
 948.0000, -59.077
 948.2000, -59.351
 948.4000, -59.497
 948.6000, -59.680
 948.8000, -59.861
 949.0000, -60.076
 949.2000, -60.470
 949.4000, -60.287
 949.6000, -60.592
 949.8000, -60.662
 950.0000, -60.700
 950.2000, -60.775
 950.4000, -60.672
 950.6000, -60.440
 950.8000, -60.226
 951.0000, -60.107
 951.2000, -60.097
 951.4000, -59.841
 951.6000, -59.750
 951.8000, -59.618
 952.0000, -59.509
 952.2000, -59.475
 952.4000, -59.512
 952.6000, -59.647
 952.8000, -59.630
 953.0000, -59.674
 953.2000, -59.648
 953.4000, -59.829
 953.6000, -59.922
 953.8000, -59.901
 954.0000, -60.119
 954.2000, -60.155
 954.4000, -60.278
 954.6000, -60.276
 954.8000, -60.394
 955.0000, -60.331
 955.2000, -60.167
 955.4000, -60.291
 955.6000, -60.158
 955.8000, -60.099
 956.0000, -60.113
 956.2000, -60.264
 956.4000, -60.039
 956.6000, -60.513
 956.8000, -60.239
 957.0000, -60.324
 957.2000, -60.377
 957.4000, -60.368
 957.6000, -60.538
 957.8000, -60.532
 958.0000, -60.554
 958.2000, -60.506
 958.4000, -60.729
 958.6000, -60.283
 958.8000, -60.222
 959.0000, -60.243
 959.2000, -60.209
 959.4000, -60.039
 959.6000, -59.745
 959.8000, -59.768
 960.0000, -59.838
 960.2000, -59.738
 960.4000, -59.721
 960.6000, -59.849
 960.8000, -60.172
 961.0000, -60.423
 961.2000, -60.600
 961.4000, -60.754
 961.6000, -60.942
 961.8000, -61.122
 962.0000, -61.251
 962.2000, -61.151
 962.4000, -61.201
 962.6000, -61.029
 962.8000, -61.023
 963.0000, -60.515
 963.2000, -60.221
 963.4000, -59.941
 963.6000, -59.739
 963.8000, -59.454
 964.0000, -59.237
 964.2000, -59.376
 964.4000, -59.340
 964.6000, -59.556
 964.8000, -59.724
 965.0000, -60.029
 965.2000, -60.335
 965.4000, -60.773
 965.6000, -61.211
 965.8000, -61.702
 966.0000, -61.943
 966.2000, -62.199
 966.4000, -62.360
 966.6000, -62.186
 966.8000, -61.850
 967.0000, -61.456
 967.2000, -61.044
 967.4000, -60.308
 967.6000, -59.949
 967.8000, -59.624
 968.0000, -59.517
 968.2000, -59.300
 968.4000, -59.246
 968.6000, -59.315
 968.8000, -59.382
 969.0000, -59.718
 969.2000, -60.366
 969.4000, -60.642
 969.6000, -61.425
 969.8000, -62.121
 970.0000, -62.778
 970.2000, -63.193
 970.4000, -63.492
 970.6000, -63.347
 970.8000, -62.846
 971.0000, -62.076
 971.2000, -61.536
 971.4000, -60.737
 971.6000, -60.283
 971.8000, -59.977
 972.0000, -59.652
 972.2000, -59.262
 972.4000, -59.216
 972.6000, -59.279
 972.8000, -59.559
 973.0000, -60.066
 973.2000, -60.626
 973.4000, -61.475
 973.6000, -62.196
 973.8000, -62.983
 974.0000, -63.898
 974.2000, -64.463
 974.4000, -64.409
 974.6000, -63.993
 974.8000, -63.235
 975.0000, -62.299
 975.2000, -61.555
 975.4000, -60.796
 975.6000, -60.201
 975.8000, -59.939
 976.0000, -59.676
 976.2000, -59.555
 976.4000, -59.575
 976.6000, -60.133
 976.8000, -60.668
 977.0000, -61.157
 977.2000, -62.041
 977.4000, -63.079
 977.6000, -64.247
 977.8000, -65.347
 978.0000, -65.660
 978.2000, -65.778
 978.4000, -64.879
 978.6000, -63.595
 978.8000, -62.637
 979.0000, -61.638
 979.2000, -60.943
 979.4000, -60.094
 979.6000, -59.881
 979.8000, -59.864
 980.0000, -59.757
 980.2000, -60.081
 980.4000, -60.432
 980.6000, -61.013
 980.8000, -61.837
 981.0000, -63.094
 981.2000, -64.384
 981.4000, -65.642
 981.6000, -66.585
 981.8000, -66.618
 982.0000, -65.730
 982.2000, -64.245
 982.4000, -62.898
 982.6000, -61.920
 982.8000, -60.895
 983.0000, -60.114
 983.2000, -59.774
 983.4000, -59.427
 983.6000, -59.592
 983.8000, -59.802
 984.0000, -60.256
 984.2000, -60.711
 984.4000, -61.652
 984.6000, -63.125
 984.8000, -64.635
 985.0000, -66.157
 985.2000, -67.061
 985.4000, -66.843
 985.6000, -65.528
 985.8000, -63.665
 986.0000, -62.333
 986.2000, -61.363
 986.4000, -60.415
 986.6000, -59.670
 986.8000, -59.355
 987.0000, -59.182
 987.2000, -59.363
 987.4000, -59.789
 987.6000, -60.415
 987.8000, -61.352
 988.0000, -62.466
 988.2000, -63.746
 988.4000, -65.469
 988.6000, -66.975
 988.8000, -67.520
 989.0000, -66.196
 989.2000, -64.783
 989.4000, -62.547
 989.6000, -61.555
 989.8000, -60.464
 990.0000, -59.848
 990.2000, -59.330
 990.4000, -59.243
 990.6000, -59.167
 990.8000, -59.534
 991.0000, -60.300
 991.2000, -61.082
 991.4000, -62.328
 991.6000, -63.912
 991.8000, -65.212
 992.0000, -67.069
 992.2000, -67.276
 992.4000, -66.311
 992.6000, -64.509
 992.8000, -62.749
 993.0000, -61.521
 993.2000, -60.573
 993.4000, -59.926
 993.6000, -59.293
 993.8000, -59.253
 994.0000, -59.346
 994.2000, -59.730
 994.4000, -60.427
 994.6000, -61.281
 994.8000, -62.701
 995.0000, -64.196
 995.2000, -65.938
 995.4000, -66.962
 995.6000, -67.214
 995.8000, -65.647
 996.0000, -64.032
 996.2000, -62.607
 996.4000, -61.396
 996.6000, -60.407
 996.8000, -59.919
 997.0000, -59.664
 997.2000, -59.533
 997.4000, -59.957
 997.6000, -60.457
 997.8000, -61.183
 998.0000, -62.392
 998.2000, -63.842
 998.4000, -65.134
 998.6000, -66.621
 998.8000, -67.101
 999.0000, -66.457
 999.2000, -65.106
 999.4000, -63.370
 999.6000, -62.126
 999.8000, -61.154
1000.0000, -60.410
1000.2000, -59.920
1000.4000, -59.924
1000.6000, -60.149
1000.8000, -60.658
1001.0000, -61.439
1001.2000, -62.419
1001.4000, -64.018
1001.6000, -65.354
1001.8000, -66.619
1002.0000, -66.657
1002.2000, -65.870
1002.4000, -64.391
1002.6000, -63.051
1002.8000, -61.784
1003.0000, -61.018
1003.2000, -60.272
1003.4000, -60.043
1003.6000, -60.081
1003.8000, -60.239
1004.0000, -60.630
1004.2000, -61.439
1004.4000, -62.281
1004.6000, -63.806
1004.8000, -65.091
1005.0000, -65.839
1005.2000, -66.260
1005.4000, -65.560
1005.6000, -64.179
1005.8000, -63.074
1006.0000, -62.103
1006.2000, -61.146
1006.4000, -60.862
1006.6000, -60.482
1006.8000, -60.521
1007.0000, -60.750
1007.2000, -61.226
1007.4000, -62.018
1007.6000, -63.228
1007.8000, -64.281
1008.0000, -65.499
1008.2000, -66.109
1008.4000, -65.987
1008.6000, -65.394
1008.8000, -64.326
1009.0000, -63.462
1009.2000, -62.638
1009.4000, -62.020
1009.6000, -61.678
1009.8000, -61.558
1010.0000, -61.447
1010.2000, -61.850
1010.4000, -62.721
1010.6000, -63.426
1010.8000, -64.438
1011.0000, -65.341
1011.2000, -66.163
1011.4000, -66.654
1011.6000, -66.116
1011.8000, -65.579
1012.0000, -64.613
1012.2000, -63.736
1012.4000, -62.880
1012.6000, -62.504
1012.8000, -62.199
1013.0000, -62.113
1013.2000, -62.228
1013.4000, -62.605
1013.6000, -63.158
1013.8000, -63.785
1014.0000, -64.496
1014.2000, -65.048
1014.4000, -65.612
1014.6000, -65.554
1014.8000, -65.094
1015.0000, -64.585
1015.2000, -63.797
1015.4000, -63.040
1015.6000, -62.560
1015.8000, -62.194
1016.0000, -61.886
1016.2000, -62.041
1016.4000, -62.087
1016.6000, -62.355
1016.8000, -63.013
1017.0000, -63.732
1017.2000, -64.135
1017.4000, -64.802
1017.6000, -64.685
1017.8000, -64.367
1018.0000, -63.791
1018.2000, -63.362
1018.4000, -62.685
1018.6000, -62.224
1018.8000, -61.887
1019.0000, -61.676
1019.2000, -61.595
1019.4000, -61.606
1019.6000, -61.755
1019.8000, -62.420
1020.0000, -62.923
1020.2000, -63.141
1020.4000, -63.364
1020.6000, -63.497
1020.8000, -63.334
1021.0000, -63.053
1021.2000, -62.500
1021.4000, -61.970
1021.6000, -61.646
1021.8000, -61.430
1022.0000, -61.240
1022.2000, -61.031
1022.4000, -61.194
1022.6000, -61.253
1022.8000, -61.560
1023.0000, -61.756
1023.2000, -62.048
1023.4000, -62.266
1023.6000, -62.231
1023.8000, -62.049
1024.0000, -61.871
1024.2000, -61.446
1024.4000, -61.528
1024.6000, -60.980
1024.8000, -60.859
1025.0000, -60.841
1025.2000, -60.724
1025.4000, -60.709
1025.6000, -60.856
1025.8000, -60.895
1026.0000, -61.303
1026.2000, -61.168
1026.4000, -61.145
1026.6000, -61.016
1026.8000, -61.170
1027.0000, -60.914
1027.2000, -60.733
1027.4000, -60.741
1027.6000, -60.319
1027.8000, -60.434
1028.0000, -60.554
1028.2000, -60.428
1028.4000, -60.471
1028.6000, -60.411
1028.8000, -60.172
1029.0000, -60.213
1029.2000, -60.042
1029.4000, -60.043
1029.6000, -59.833
1029.8000, -59.864
1030.0000, -59.868
1030.2000, -59.974
1030.4000, -59.987
1030.6000, -60.188
1030.8000, -60.182
1031.0000, -60.218
1031.2000, -60.486
1031.4000, -60.352
1031.6000, -60.499
1031.8000, -60.072
1032.0000, -59.875
1032.2000, -59.642
1032.4000, -59.373
1032.6000, -59.472
1032.8000, -59.230
1033.0000, -59.321
1033.2000, -59.259
1033.4000, -59.439
1033.6000, -59.692
1033.8000, -59.991
1034.0000, -60.362
1034.2000, -60.241
1034.4000, -60.530
1034.6000, -60.328
1034.8000, -59.878
1035.0000, -59.616
1035.2000, -59.123
1035.4000, -58.815
1035.6000, -58.584
1035.8000, -58.436
1036.0000, -58.497
1036.2000, -58.796
1036.4000, -59.147
1036.6000, -59.440
1036.8000, -59.926
1037.0000, -60.370
1037.2000, -60.729
1037.4000, -60.703
1037.6000, -60.234
1037.8000, -59.906
1038.0000, -59.346
1038.2000, -58.862
1038.4000, -58.523
1038.6000, -58.291
1038.8000, -58.169
1039.0000, -58.186
1039.2000, -58.459
1039.4000, -58.877
1039.6000, -59.629
1039.8000, -60.292
1040.0000, -60.942
1040.2000, -61.315
1040.4000, -61.210
1040.6000, -60.931
1040.8000, -60.079
1041.0000, -59.652
1041.2000, -59.017
1041.4000, -58.344
1041.6000, -58.106
1041.8000, -58.031
1042.0000, -58.147
1042.2000, -58.613
1042.4000, -59.217
1042.6000, -59.928
1042.8000, -60.653
1043.0000, -61.352
1043.2000, -62.206
1043.4000, -61.865
1043.6000, -61.155
1043.8000, -60.175
1044.0000, -59.364
1044.2000, -58.671
1044.4000, -58.155
1044.6000, -57.897
1044.8000, -57.774
1045.0000, -58.079
1045.2000, -58.350
1045.4000, -58.832
1045.6000, -59.663
1045.8000, -60.952
1046.0000, -61.617
1046.2000, -62.214
1046.4000, -61.898
1046.6000, -61.142
1046.8000, -60.072
1047.0000, -58.906
1047.2000, -57.938
1047.4000, -57.217
1047.6000, -56.837
1047.8000, -56.713
1048.0000, -56.937
1048.2000, -57.222
1048.4000, -57.796
1048.6000, -58.764
1048.8000, -59.528
1049.0000, -60.678
1049.2000, -60.860
1049.4000, -60.422
1049.6000, -59.325
1049.8000, -58.007
1050.0000, -56.944
1050.2000, -55.795
1050.4000, -55.356
1050.6000, -55.076
1050.8000, -54.818
1051.0000, -55.479
1051.2000, -55.820
1051.4000, -56.653
1051.6000, -58.020
1051.8000, -59.192
1052.0000, -60.562
1052.2000, -61.861
1052.4000, -61.305
1052.6000, -60.330
1052.8000, -58.891
1053.0000, -57.816
1053.2000, -57.132
1053.4000, -56.351
1053.6000, -55.943
1053.8000, -56.130
1054.0000, -56.289
1054.2000, -57.023
1054.4000, -57.859
1054.6000, -59.158
1054.8000, -60.628
1055.0000, -62.226
1055.2000, -63.252
1055.4000, -62.770
1055.6000, -61.692
1055.8000, -60.342
1056.0000, -58.884
1056.2000, -57.996
1056.4000, -57.385
1056.6000, -56.919
1056.8000, -56.757
1057.0000, -57.065
1057.2000, -57.612
1057.4000, -58.321
1057.6000, -59.601
1057.8000, -61.171
1058.0000, -62.852
1058.2000, -63.785
1058.4000, -63.329
1058.6000, -61.594
1058.8000, -60.168
1059.0000, -58.554
1059.2000, -57.365
1059.4000, -56.706
1059.6000, -56.171
1059.8000, -56.058
1060.0000, -56.291
1060.2000, -56.833
1060.4000, -57.465
1060.6000, -58.473
1060.8000, -59.668
1061.0000, -60.760
1061.2000, -62.011
1061.4000, -61.484
1061.6000, -60.259
1061.8000, -58.483
1062.0000, -57.043
1062.2000, -55.947
1062.4000, -55.077
1062.6000, -54.474
1062.8000, -54.002
1063.0000, -53.970
1063.2000, -53.976
1063.4000, -54.543
1063.6000, -53.156
1063.8000, -42.802
1064.0000, -40.939
