74CSV  	
// AQ6374 OPTICAL SPECTRUM ANALYZER //                  
35
"CTRWL",1382.000000
"SPAN", 636.000000
"START WL",1064.000000
"STOP WL",1700.000000
"WLFREQ", 0
"REFL",-56.6
"LSCL", 2.9
"RESLN",1.000
"AVG",   1
"SMPLAUTO",      1
"SMPL",       3181
"SMPLINTVL",0.2000
"HIGH1"
"MEAS"
"LSUNT",0
"NMSKH","OFF"
"RESCOR",0
"SMOOTH",0
"MEASWL",1
"SWPSPD",0
"MODELNAME","AQ6374"
"CHGPT",          0
"RESCAL0_0",       9996
"RESCAL0_1",       -866
"RESCAL0_2",    1341521
"RESCAL1_0",      10053
"RESCAL1_1",          0
"RESCAL1_2",          0
"CORESIZE", 0






"[TRACE DATA]"
1064.0000, -32.157
1064.2000, -28.383
1064.4000, -28.676
1064.6000, -28.522
1064.8000, -28.928
1065.0000, -31.996
1065.2000, -45.769
1065.4000, -59.603
1065.6000, -61.605
1065.8000, -60.650
1066.0000, -59.553
1066.2000, -58.232
1066.4000, -56.700
1066.6000, -55.566
1066.8000, -54.916
1067.0000, -54.399
1067.2000, -54.317
1067.4000, -54.422
1067.6000, -54.895
1067.8000, -55.535
1068.0000, -56.656
1068.2000, -58.127
1068.4000, -59.819
1068.6000, -61.218
1068.8000, -61.688
1069.0000, -60.969
1069.2000, -59.444
1069.4000, -57.937
1069.6000, -56.684
1069.8000, -55.980
1070.0000, -55.363
1070.2000, -55.156
1070.4000, -55.056
1070.6000, -55.330
1070.8000, -56.043
1071.0000, -56.767
1071.2000, -58.049
1071.4000, -59.643
1071.6000, -60.971
1071.8000, -62.117
1072.0000, -61.701
1072.2000, -60.568
1072.4000, -58.979
1072.6000, -57.560
1072.8000, -56.163
1073.0000, -55.470
1073.2000, -55.106
1073.4000, -54.827
1073.6000, -54.857
1073.8000, -55.281
1074.0000, -56.044
1074.2000, -56.874
1074.4000, -58.247
1074.6000, -59.518
1074.8000, -60.859
1075.0000, -61.064
1075.2000, -59.995
1075.4000, -58.551
1075.6000, -56.890
1075.8000, -55.492
1076.0000, -54.522
1076.2000, -53.896
1076.4000, -53.651
1076.6000, -53.273
1076.8000, -53.549
1077.0000, -53.991
1077.2000, -54.932
1077.4000, -55.684
1077.6000, -57.050
1077.8000, -58.250
1078.0000, -58.983
1078.2000, -58.911
1078.4000, -57.406
1078.6000, -56.138
1078.8000, -54.263
1079.0000, -53.496
1079.2000, -52.805
1079.4000, -52.165
1079.6000, -52.256
1079.8000, -52.297
1080.0000, -52.861
1080.2000, -53.408
1080.4000, -54.487
1080.6000, -55.282
1080.8000, -56.743
1081.0000, -57.710
1081.2000, -58.074
1081.4000, -57.315
1081.6000, -56.559
1081.8000, -55.194
1082.0000, -54.619
1082.2000, -53.170
1082.4000, -53.121
1082.6000, -52.496
1082.8000, -52.925
1083.0000, -52.895
1083.2000, -53.639
1083.4000, -54.146
1083.6000, -55.374
1083.8000, -56.323
1084.0000, -57.230
1084.2000, -58.167
1084.4000, -58.316
1084.6000, -58.156
1084.8000, -57.519
1085.0000, -56.680
1085.2000, -56.071
1085.4000, -55.296
1085.6000, -54.776
1085.8000, -54.266
1086.0000, -54.199
1086.2000, -54.471
1086.4000, -54.753
1086.6000, -55.206
1086.8000, -56.017
1087.0000, -56.738
1087.2000, -57.599
1087.4000, -58.224
1087.6000, -58.710
1087.8000, -58.476
1088.0000, -58.080
1088.2000, -57.429
1088.4000, -56.610
1088.6000, -56.171
1088.8000, -55.355
1089.0000, -55.074
1089.2000, -54.935
1089.4000, -54.984
1089.6000, -55.256
1089.8000, -55.559
1090.0000, -55.935
1090.2000, -56.557
1090.4000, -57.202
1090.6000, -57.640
1090.8000, -58.042
1091.0000, -57.890
1091.2000, -57.621
1091.4000, -57.130
1091.6000, -56.169
1091.8000, -55.743
1092.0000, -55.622
1092.2000, -55.174
1092.4000, -54.974
1092.6000, -54.907
1092.8000, -55.032
1093.0000, -55.312
1093.2000, -55.600
1093.4000, -56.099
1093.6000, -56.563
1093.8000, -56.930
1094.0000, -56.902
1094.2000, -56.922
1094.4000, -56.450
1094.6000, -56.116
1094.8000, -55.759
1095.0000, -55.421
1095.2000, -54.929
1095.4000, -54.773
1095.6000, -54.706
1095.8000, -54.682
1096.0000, -54.779
1096.2000, -55.076
1096.4000, -55.342
1096.6000, -55.564
1096.8000, -55.760
1097.0000, -55.761
1097.2000, -55.821
1097.4000, -55.992
1097.6000, -55.781
1097.8000, -55.454
1098.0000, -55.268
1098.2000, -54.846
1098.4000, -54.821
1098.6000, -54.781
1098.8000, -54.533
1099.0000, -54.658
1099.2000, -54.807
1099.4000, -54.761
1099.6000, -55.156
1099.8000, -55.324
1100.0000, -55.358
1100.2000, -55.482
1100.4000, -55.593
1100.6000, -55.448
1100.8000, -55.086
1101.0000, -54.986
1101.2000, -54.810
1101.4000, -54.698
1101.6000, -54.704
1101.8000, -54.790
1102.0000, -54.619
1102.2000, -54.934
1102.4000, -54.956
1102.6000, -55.141
1102.8000, -55.323
1103.0000, -55.437
1103.2000, -55.453
1103.4000, -55.536
1103.6000, -55.427
1103.8000, -55.182
1104.0000, -55.049
1104.2000, -54.967
1104.4000, -54.726
1104.6000, -54.688
1104.8000, -54.532
1105.0000, -54.655
1105.2000, -54.851
1105.4000, -55.031
1105.6000, -55.143
1105.8000, -55.422
1106.0000, -55.685
1106.2000, -55.851
1106.4000, -56.012
1106.6000, -55.777
1106.8000, -55.828
1107.0000, -55.346
1107.2000, -55.096
1107.4000, -54.586
1107.6000, -54.399
1107.8000, -54.256
1108.0000, -54.067
1108.2000, -54.073
1108.4000, -54.250
1108.6000, -54.271
1108.8000, -54.448
1109.0000, -55.027
1109.2000, -55.376
1109.4000, -55.527
1109.6000, -56.114
1109.8000, -56.430
1110.0000, -56.097
1110.2000, -55.889
1110.4000, -55.266
1110.6000, -55.090
1110.8000, -54.555
1111.0000, -54.216
1111.2000, -53.870
1111.4000, -53.547
1111.6000, -53.427
1111.8000, -53.455
1112.0000, -53.675
1112.2000, -53.857
1112.4000, -54.378
1112.6000, -54.893
1112.8000, -55.742
1113.0000, -56.226
1113.2000, -56.647
1113.4000, -56.779
1113.6000, -56.595
1113.8000, -56.146
1114.0000, -55.308
1114.2000, -54.793
1114.4000, -54.185
1114.6000, -53.754
1114.8000, -53.307
1115.0000, -53.140
1115.2000, -53.051
1115.4000, -53.314
1115.6000, -53.326
1115.8000, -53.933
1116.0000, -54.597
1116.2000, -55.365
1116.4000, -56.137
1116.6000, -56.846
1116.8000, -57.368
1117.0000, -57.432
1117.2000, -57.110
1117.4000, -56.289
1117.6000, -55.708
1117.8000, -54.978
1118.0000, -54.002
1118.2000, -53.594
1118.4000, -53.113
1118.6000, -52.846
1118.8000, -52.890
1119.0000, -53.027
1119.2000, -53.212
1119.4000, -53.830
1119.6000, -54.589
1119.8000, -55.384
1120.0000, -56.687
1120.2000, -57.520
1120.4000, -58.492
1120.6000, -58.636
1120.8000, -58.451
1121.0000, -57.620
1121.2000, -56.366
1121.4000, -55.190
1121.6000, -54.449
1121.8000, -53.642
1122.0000, -53.171
1122.2000, -52.814
1122.4000, -52.782
1122.6000, -52.867
1122.8000, -52.841
1123.0000, -53.472
1123.2000, -54.025
1123.4000, -54.986
1123.6000, -56.081
1123.8000, -57.347
1124.0000, -58.569
1124.2000, -59.650
1124.4000, -59.862
1124.6000, -58.960
1124.8000, -57.927
1125.0000, -56.671
1125.2000, -55.628
1125.4000, -54.812
1125.6000, -54.093
1125.8000, -53.639
1126.0000, -53.167
1126.2000, -53.045
1126.4000, -53.184
1126.6000, -53.562
1126.8000, -54.186
1127.0000, -54.960
1127.2000, -55.822
1127.4000, -56.917
1127.6000, -58.526
1127.8000, -60.024
1128.0000, -61.229
1128.2000, -61.262
1128.4000, -60.173
1128.6000, -58.867
1128.8000, -57.259
1129.0000, -56.148
1129.2000, -55.249
1129.4000, -54.370
1129.6000, -53.908
1129.8000, -53.614
1130.0000, -53.500
1130.2000, -53.679
1130.4000, -53.767
1130.6000, -54.289
1130.8000, -54.974
1131.0000, -56.002
1131.2000, -57.277
1131.4000, -58.701
1131.6000, -60.232
1131.8000, -61.825
1132.0000, -62.311
1132.2000, -61.580
1132.4000, -59.926
1132.6000, -58.419
1132.8000, -56.976
1133.0000, -55.995
1133.2000, -54.861
1133.4000, -54.398
1133.6000, -53.993
1133.8000, -53.722
1134.0000, -53.797
1134.2000, -53.957
1134.4000, -54.393
1134.6000, -54.970
1134.8000, -55.891
1135.0000, -56.927
1135.2000, -58.092
1135.4000, -59.777
1135.6000, -61.345
1135.8000, -62.699
1136.0000, -63.022
1136.2000, -61.635
1136.4000, -60.089
1136.6000, -58.434
1136.8000, -57.036
1137.0000, -56.011
1137.2000, -55.205
1137.4000, -54.559
1137.6000, -54.101
1137.8000, -53.923
1138.0000, -54.008
1138.2000, -54.225
1138.4000, -54.572
1138.6000, -55.120
1138.8000, -56.073
1139.0000, -57.029
1139.2000, -58.104
1139.4000, -59.558
1139.6000, -61.214
1139.8000, -62.673
1140.0000, -63.264
1140.2000, -62.139
1140.4000, -60.813
1140.6000, -59.288
1140.8000, -57.949
1141.0000, -56.599
1141.2000, -55.792
1141.4000, -55.129
1141.6000, -54.856
1141.8000, -54.476
1142.0000, -54.322
1142.2000, -54.485
1142.4000, -54.800
1142.6000, -55.318
1142.8000, -55.812
1143.0000, -56.692
1143.2000, -57.653
1143.4000, -59.225
1143.6000, -60.250
1143.8000, -61.965
1144.0000, -62.943
1144.2000, -62.734
1144.4000, -61.956
1144.6000, -60.784
1144.8000, -59.194
1145.0000, -57.974
1145.2000, -56.888
1145.4000, -56.250
1145.6000, -55.648
1145.8000, -55.163
1146.0000, -54.916
1146.2000, -55.010
1146.4000, -55.109
1146.6000, -55.297
1146.8000, -55.579
1147.0000, -56.394
1147.2000, -57.030
1147.4000, -57.796
1147.6000, -59.045
1147.8000, -60.260
1148.0000, -61.504
1148.2000, -62.083
1148.4000, -62.270
1148.6000, -61.568
1148.8000, -60.661
1149.0000, -59.600
1149.2000, -58.626
1149.4000, -57.559
1149.6000, -56.914
1149.8000, -56.223
1150.0000, -55.893
1150.2000, -55.599
1150.4000, -55.294
1150.6000, -55.364
1150.8000, -55.339
1151.0000, -55.732
1151.2000, -56.141
1151.4000, -56.705
1151.6000, -57.381
1151.8000, -58.255
1152.0000, -59.218
1152.2000, -60.165
1152.4000, -60.925
1152.6000, -61.289
1152.8000, -61.387
1153.0000, -60.812
1153.2000, -60.139
1153.4000, -59.210
1153.6000, -58.399
1153.8000, -57.637
1154.0000, -57.106
1154.2000, -56.685
1154.4000, -56.047
1154.6000, -55.957
1154.8000, -55.766
1155.0000, -55.730
1155.2000, -55.849
1155.4000, -56.036
1155.6000, -56.451
1155.8000, -56.812
1156.0000, -57.545
1156.2000, -58.081
1156.4000, -58.535
1156.6000, -59.227
1156.8000, -59.897
1157.0000, -60.194
1157.2000, -60.425
1157.4000, -60.304
1157.6000, -59.920
1157.8000, -59.278
1158.0000, -58.591
1158.2000, -58.011
1158.4000, -57.479
1158.6000, -57.154
1158.8000, -56.726
1159.0000, -56.406
1159.2000, -56.352
1159.4000, -56.191
1159.6000, -56.145
1159.8000, -56.310
1160.0000, -56.428
1160.2000, -56.703
1160.4000, -57.023
1160.6000, -57.518
1160.8000, -57.958
1161.0000, -58.419
1161.2000, -58.817
1161.4000, -58.970
1161.6000, -59.451
1161.8000, -59.467
1162.0000, -59.495
1162.2000, -59.189
1162.4000, -58.896
1162.6000, -58.524
1162.8000, -58.135
1163.0000, -57.805
1163.2000, -57.397
1163.4000, -56.969
1163.6000, -56.927
1163.8000, -56.844
1164.0000, -56.789
1164.2000, -56.705
1164.4000, -56.671
1164.6000, -56.958
1164.8000, -57.069
1165.0000, -57.024
1165.2000, -57.431
1165.4000, -57.703
1165.6000, -57.854
1165.8000, -58.214
1166.0000, -58.316
1166.2000, -58.490
1166.4000, -58.525
1166.6000, -58.547
1166.8000, -58.588
1167.0000, -58.449
1167.2000, -58.340
1167.4000, -58.225
1167.6000, -57.956
1167.8000, -57.891
1168.0000, -57.593
1168.2000, -57.714
1168.4000, -57.447
1168.6000, -57.496
1168.8000, -57.476
1169.0000, -57.424
1169.2000, -57.542
1169.4000, -57.568
1169.6000, -57.559
1169.8000, -57.741
1170.0000, -57.982
1170.2000, -57.912
1170.4000, -57.854
1170.6000, -57.882
1170.8000, -58.141
1171.0000, -58.137
1171.2000, -58.128
1171.4000, -58.169
1171.6000, -58.055
1171.8000, -57.978
1172.0000, -58.035
1172.2000, -57.922
1172.4000, -57.867
1172.6000, -57.948
1172.8000, -57.951
1173.0000, -58.029
1173.2000, -58.004
1173.4000, -58.211
1173.6000, -58.381
1173.8000, -58.492
1174.0000, -58.545
1174.2000, -58.560
1174.4000, -58.626
1174.6000, -58.660
1174.8000, -58.494
1175.0000, -58.486
1175.2000, -58.430
1175.4000, -58.261
1175.6000, -58.081
1175.8000, -58.083
1176.0000, -57.979
1176.2000, -57.959
1176.4000, -57.662
1176.6000, -57.652
1176.8000, -57.735
1177.0000, -57.611
1177.2000, -57.636
1177.4000, -57.883
1177.6000, -58.037
1177.8000, -57.984
1178.0000, -58.423
1178.2000, -58.435
1178.4000, -58.687
1178.6000, -58.959
1178.8000, -59.276
1179.0000, -59.486
1179.2000, -59.685
1179.4000, -59.918
1179.6000, -59.860
1179.8000, -59.898
1180.0000, -59.620
1180.2000, -59.416
1180.4000, -59.266
1180.6000, -58.869
1180.8000, -58.640
1181.0000, -58.363
1181.2000, -58.074
1181.4000, -57.866
1181.6000, -57.747
1181.8000, -57.441
1182.0000, -57.203
1182.2000, -57.318
1182.4000, -57.444
1182.6000, -57.418
1182.8000, -57.572
1183.0000, -57.707
1183.2000, -57.938
1183.4000, -58.238
1183.6000, -58.741
1183.8000, -59.132
1184.0000, -59.636
1184.2000, -60.083
1184.4000, -60.585
1184.6000, -60.757
1184.8000, -61.272
1185.0000, -61.413
1185.2000, -61.245
1185.4000, -61.112
1185.6000, -61.043
1185.8000, -60.316
1186.0000, -59.978
1186.2000, -59.530
1186.4000, -58.992
1186.6000, -58.732
1186.8000, -58.240
1187.0000, -57.787
1187.2000, -57.450
1187.4000, -57.384
1187.6000, -57.276
1187.8000, -57.081
1188.0000, -57.181
1188.2000, -57.284
1188.4000, -57.300
1188.6000, -57.436
1188.8000, -57.880
1189.0000, -58.460
1189.2000, -58.647
1189.4000, -59.351
1189.6000, -59.906
1189.8000, -60.552
1190.0000, -60.971
1190.2000, -61.536
1190.4000, -62.499
1190.6000, -62.872
1190.8000, -63.247
1191.0000, -63.278
1191.2000, -62.932
1191.4000, -62.563
1191.6000, -61.782
1191.8000, -61.294
1192.0000, -60.549
1192.2000, -59.953
1192.4000, -59.278
1192.6000, -58.631
1192.8000, -58.173
1193.0000, -57.808
1193.2000, -57.543
1193.4000, -57.242
1193.6000, -57.277
1193.8000, -57.003
1194.0000, -57.027
1194.2000, -57.117
1194.4000, -57.360
1194.6000, -57.374
1194.8000, -57.663
1195.0000, -58.404
1195.2000, -58.742
1195.4000, -59.320
1195.6000, -59.817
1195.8000, -60.548
1196.0000, -61.225
1196.2000, -62.386
1196.4000, -63.176
1196.6000, -64.221
1196.8000, -64.789
1197.0000, -65.361
1197.2000, -65.431
1197.4000, -65.052
1197.6000, -63.981
1197.8000, -63.164
1198.0000, -62.039
1198.2000, -61.346
1198.4000, -60.560
1198.6000, -59.867
1198.8000, -59.139
1199.0000, -58.550
1199.2000, -58.377
1199.4000, -57.973
1199.6000, -57.617
1199.8000, -57.472
1200.0000, -57.406
1200.2000, -57.135
1200.4000, -57.252
1200.6000, -57.219
1200.8000, -57.412
1201.0000, -57.708
1201.2000, -57.866
1201.4000, -58.252
1201.6000, -58.865
1201.8000, -59.152
1202.0000, -59.731
1202.2000, -60.565
1202.4000, -61.206
1202.6000, -62.235
1202.8000, -63.348
1203.0000, -64.546
1203.2000, -65.675
1203.4000, -66.708
1203.6000, -67.126
1203.8000, -67.374
1204.0000, -66.781
1204.2000, -65.780
1204.4000, -64.865
1204.6000, -63.375
1204.8000, -62.487
1205.0000, -61.572
1205.2000, -60.848
1205.4000, -59.963
1205.6000, -59.392
1205.8000, -58.911
1206.0000, -58.524
1206.2000, -58.085
1206.4000, -57.681
1206.6000, -57.740
1206.8000, -57.533
1207.0000, -57.451
1207.2000, -57.436
1207.4000, -57.487
1207.6000, -57.497
1207.8000, -57.615
1208.0000, -57.971
1208.2000, -58.209
1208.4000, -58.632
1208.6000, -58.979
1208.8000, -59.572
1209.0000, -60.169
1209.2000, -60.725
1209.4000, -61.744
1209.6000, -62.806
1209.8000, -63.717
1210.0000, -64.737
1210.2000, -65.831
1210.4000, -67.007
1210.6000, -67.591
1210.8000, -68.261
1211.0000, -67.985
1211.2000, -67.104
1211.4000, -66.024
1211.6000, -65.095
1211.8000, -63.956
1212.0000, -62.987
1212.2000, -62.074
1212.4000, -61.180
1212.6000, -60.816
1212.8000, -60.081
1213.0000, -59.546
1213.2000, -59.129
1213.4000, -58.789
1213.6000, -58.340
1213.8000, -58.320
1214.0000, -58.101
1214.2000, -57.918
1214.4000, -57.828
1214.6000, -57.740
1214.8000, -57.874
1215.0000, -58.087
1215.2000, -57.936
1215.4000, -58.278
1215.6000, -58.420
1215.8000, -58.779
1216.0000, -59.165
1216.2000, -59.660
1216.4000, -60.015
1216.6000, -60.451
1216.8000, -61.167
1217.0000, -61.738
1217.2000, -62.522
1217.4000, -63.157
1217.6000, -63.928
1217.8000, -64.749
1218.0000, -65.609
1218.2000, -66.391
1218.4000, -66.915
1218.6000, -67.083
1218.8000, -66.821
1219.0000, -66.546
1219.2000, -65.785
1219.4000, -65.072
1219.6000, -64.389
1219.8000, -63.536
1220.0000, -62.854
1220.2000, -62.186
1220.4000, -61.442
1220.6000, -61.052
1220.8000, -60.360
1221.0000, -60.169
1221.2000, -59.564
1221.4000, -59.354
1221.6000, -59.156
1221.8000, -58.884
1222.0000, -58.829
1222.2000, -58.562
1222.4000, -58.566
1222.6000, -58.511
1222.8000, -58.537
1223.0000, -58.718
1223.2000, -58.599
1223.4000, -58.549
1223.6000, -58.889
1223.8000, -59.083
1224.0000, -59.191
1224.2000, -59.420
1224.4000, -59.789
1224.6000, -60.081
1224.8000, -60.425
1225.0000, -60.973
1225.2000, -61.293
1225.4000, -61.635
1225.6000, -62.026
1225.8000, -62.589
1226.0000, -62.972
1226.2000, -63.650
1226.4000, -63.929
1226.6000, -64.303
1226.8000, -64.588
1227.0000, -64.851
1227.2000, -65.050
1227.4000, -65.037
1227.6000, -64.752
1227.8000, -64.525
1228.0000, -64.206
1228.2000, -63.882
1228.4000, -63.485
1228.6000, -62.923
1228.8000, -62.442
1229.0000, -62.079
1229.2000, -62.133
1229.4000, -61.636
1229.6000, -61.326
1229.8000, -60.850
1230.0000, -60.513
1230.2000, -60.617
1230.4000, -60.252
1230.6000, -60.149
1230.8000, -59.986
1231.0000, -59.720
1231.2000, -59.705
1231.4000, -59.730
1231.6000, -59.443
1231.8000, -59.683
1232.0000, -59.738
1232.2000, -59.576
1232.4000, -59.572
1232.6000, -59.763
1232.8000, -59.777
1233.0000, -59.945
1233.2000, -60.152
1233.4000, -60.261
1233.6000, -60.190
1233.8000, -60.677
1234.0000, -60.854
1234.2000, -61.083
1234.4000, -61.281
1234.6000, -61.464
1234.8000, -61.635
1235.0000, -61.855
1235.2000, -61.995
1235.4000, -62.017
1235.6000, -62.369
1235.8000, -62.661
1236.0000, -62.600
1236.2000, -62.861
1236.4000, -62.903
1236.6000, -62.978
1236.8000, -62.980
1237.0000, -63.092
1237.2000, -63.149
1237.4000, -63.118
1237.6000, -63.000
1237.8000, -62.916
1238.0000, -63.090
1238.2000, -62.806
1238.4000, -62.759
1238.6000, -62.532
1238.8000, -62.566
1239.0000, -62.146
1239.2000, -62.088
1239.4000, -62.121
1239.6000, -61.987
1239.8000, -61.842
1240.0000, -61.964
1240.2000, -61.596
1240.4000, -61.651
1240.6000, -61.313
1240.8000, -61.593
1241.0000, -61.483
1241.2000, -61.416
1241.4000, -61.348
1241.6000, -61.314
1241.8000, -61.249
1242.0000, -61.361
1242.2000, -61.319
1242.4000, -61.220
1242.6000, -61.487
1242.8000, -61.538
1243.0000, -61.599
1243.2000, -61.457
1243.4000, -61.616
1243.6000, -61.642
1243.8000, -61.695
1244.0000, -61.693
1244.2000, -61.748
1244.4000, -61.933
1244.6000, -61.926
1244.8000, -61.978
1245.0000, -61.828
1245.2000, -62.023
1245.4000, -62.104
1245.6000, -62.224
1245.8000, -62.163
1246.0000, -62.072
1246.2000, -62.267
1246.4000, -62.242
1246.6000, -62.085
1246.8000, -62.243
1247.0000, -62.241
1247.2000, -62.224
1247.4000, -62.136
1247.6000, -61.982
1247.8000, -61.982
1248.0000, -62.164
1248.2000, -61.950
1248.4000, -61.988
1248.6000, -61.915
1248.8000, -61.892
1249.0000, -61.654
1249.2000, -61.839
1249.4000, -61.787
1249.6000, -61.689
1249.8000, -61.861
1250.0000, -61.812
1250.2000, -61.712
1250.4000, -61.608
1250.6000, -61.586
1250.8000, -61.544
1251.0000, -61.759
1251.2000, -61.496
1251.4000, -61.712
1251.6000, -61.976
1251.8000, -61.896
1252.0000, -62.008
1252.2000, -61.884
1252.4000, -62.001
1252.6000, -62.103
1252.8000, -62.295
1253.0000, -62.342
1253.2000, -62.477
1253.4000, -62.563
1253.6000, -62.446
1253.8000, -62.671
1254.0000, -63.037
1254.2000, -62.833
1254.4000, -62.891
1254.6000, -63.255
1254.8000, -63.288
1255.0000, -63.130
1255.2000, -63.634
1255.4000, -63.581
1255.6000, -64.075
1255.8000, -64.090
1256.0000, -64.136
1256.2000, -64.293
1256.4000, -64.284
1256.6000, -64.531
1256.8000, -64.556
1257.0000, -64.657
1257.2000, -64.718
1257.4000, -64.765
1257.6000, -64.874
1257.8000, -64.908
1258.0000, -64.818
1258.2000, -64.751
1258.4000, -64.867
1258.6000, -64.706
1258.8000, -64.695
1259.0000, -64.585
1259.2000, -64.644
1259.4000, -64.405
1259.6000, -64.550
1259.8000, -64.266
1260.0000, -64.193
1260.2000, -64.080
1260.4000, -64.068
1260.6000, -63.521
1260.8000, -63.465
1261.0000, -63.362
1261.2000, -63.165
1261.4000, -63.129
1261.6000, -62.859
1261.8000, -62.809
1262.0000, -62.651
1262.2000, -62.410
1262.4000, -62.306
1262.6000, -62.243
1262.8000, -62.240
1263.0000, -62.059
1263.2000, -61.846
1263.4000, -61.861
1263.6000, -61.918
1263.8000, -61.594
1264.0000, -61.665
1264.2000, -61.590
1264.4000, -61.279
1264.6000, -61.344
1264.8000, -61.253
1265.0000, -61.162
1265.2000, -61.262
1265.4000, -61.288
1265.6000, -61.064
1265.8000, -61.041
1266.0000, -61.178
1266.2000, -61.102
1266.4000, -60.983
1266.6000, -60.857
1266.8000, -60.873
1267.0000, -60.827
1267.2000, -61.066
1267.4000, -60.762
1267.6000, -60.887
1267.8000, -61.005
1268.0000, -60.843
1268.2000, -60.918
1268.4000, -60.850
1268.6000, -60.924
1268.8000, -61.020
1269.0000, -60.974
1269.2000, -61.249
1269.4000, -61.284
1269.6000, -61.494
1269.8000, -61.560
1270.0000, -61.466
1270.2000, -61.436
1270.4000, -61.580
1270.6000, -61.670
1270.8000, -61.784
1271.0000, -61.895
1271.2000, -62.090
1271.4000, -62.343
1271.6000, -62.449
1271.8000, -62.359
1272.0000, -62.424
1272.2000, -62.509
1272.4000, -62.825
1272.6000, -62.758
1272.8000, -63.028
1273.0000, -63.370
1273.2000, -63.403
1273.4000, -63.553
1273.6000, -63.709
1273.8000, -64.054
1274.0000, -64.024
1274.2000, -64.219
1274.4000, -64.302
1274.6000, -64.527
1274.8000, -64.622
1275.0000, -64.818
1275.2000, -65.138
1275.4000, -65.148
1275.6000, -65.529
1275.8000, -65.679
1276.0000, -66.021
1276.2000, -66.005
1276.4000, -66.453
1276.6000, -66.780
1276.8000, -67.337
1277.0000, -67.317
1277.2000, -67.413
1277.4000, -67.302
1277.6000, -67.769
1277.8000, -68.034
1278.0000, -68.202
1278.2000, -68.699
1278.4000, -68.862
1278.6000, -69.110
1278.8000, -69.428
1279.0000, -69.617
1279.2000, -69.615
1279.4000, -70.112
1279.6000, -69.839
1279.8000, -70.560
1280.0000, -70.409
1280.2000, -70.539
1280.4000, -70.905
1280.6000, -71.135
1280.8000, -71.094
1281.0000, -71.425
1281.2000, -71.797
1281.4000, -71.441
1281.6000, -71.365
1281.8000, -71.411
1282.0000, -71.794
1282.2000, -71.652
1282.4000, -71.734
1282.6000, -71.856
1282.8000, -71.541
1283.0000, -71.385
1283.2000, -71.494
1283.4000, -71.230
1283.6000, -71.199
1283.8000, -71.435
1284.0000, -70.959
1284.2000, -70.991
1284.4000, -70.893
1284.6000, -70.693
1284.8000, -70.542
1285.0000, -70.474
1285.2000, -70.308
1285.4000, -70.107
1285.6000, -69.971
1285.8000, -69.727
1286.0000, -69.683
1286.2000, -69.517
1286.4000, -69.421
1286.6000, -69.536
1286.8000, -69.138
1287.0000, -69.294
1287.2000, -68.869
1287.4000, -68.724
1287.6000, -68.825
1287.8000, -68.655
1288.0000, -68.537
1288.2000, -68.317
1288.4000, -68.576
1288.6000, -67.622
1288.8000, -67.474
1289.0000, -68.376
1289.2000, -67.544
1289.4000, -67.665
1289.6000, -67.431
1289.8000, -67.345
1290.0000, -68.283
1290.2000, -67.108
1290.4000, -67.290
1290.6000, -67.314
1290.8000, -67.238
1291.0000, -67.258
1291.2000, -66.883
1291.4000, -67.034
1291.6000, -66.989
1291.8000, -67.027
1292.0000, -66.515
1292.2000, -66.727
1292.4000, -66.607
1292.6000, -66.752
1292.8000, -66.611
1293.0000, -66.978
1293.2000, -66.513
1293.4000, -66.525
1293.6000, -66.556
1293.8000, -66.527
1294.0000, -66.551
1294.2000, -66.453
1294.4000, -66.597
1294.6000, -66.501
1294.8000, -66.422
1295.0000, -66.361
1295.2000, -66.478
1295.4000, -66.415
1295.6000, -66.096
1295.8000, -66.349
1296.0000, -66.358
1296.2000, -66.695
1296.4000, -66.365
1296.6000, -66.262
1296.8000, -66.295
1297.0000, -66.209
1297.2000, -66.342
1297.4000, -66.276
1297.6000, -66.224
1297.8000, -66.501
1298.0000, -66.071
1298.2000, -66.193
1298.4000, -66.137
1298.6000, -66.311
1298.8000, -66.095
1299.0000, -66.218
1299.2000, -66.204
1299.4000, -66.473
1299.6000, -66.455
1299.8000, -66.180
1300.0000, -66.135
1300.2000, -66.176
1300.4000, -66.261
1300.6000, -66.489
1300.8000, -66.318
1301.0000, -66.411
1301.2000, -66.303
1301.4000, -66.396
1301.6000, -66.411
1301.8000, -66.621
1302.0000, -66.532
1302.2000, -66.428
1302.4000, -66.488
1302.6000, -66.627
1302.8000, -66.500
1303.0000, -66.492
1303.2000, -66.464
1303.4000, -66.523
1303.6000, -66.404
1303.8000, -66.770
1304.0000, -66.699
1304.2000, -66.860
1304.4000, -66.925
1304.6000, -66.925
1304.8000, -66.633
1305.0000, -66.755
1305.2000, -66.813
1305.4000, -66.830
1305.6000, -66.682
1305.8000, -67.028
1306.0000, -66.589
1306.2000, -66.598
1306.4000, -66.776
1306.6000, -66.799
1306.8000, -66.927
1307.0000, -66.716
1307.2000, -66.896
1307.4000, -66.800
1307.6000, -67.096
1307.8000, -66.892
1308.0000, -67.071
1308.2000, -66.933
1308.4000, -66.833
1308.6000, -66.903
1308.8000, -66.752
1309.0000, -66.962
1309.2000, -66.920
1309.4000, -66.763
1309.6000, -67.060
1309.8000, -66.947
1310.0000, -66.845
1310.2000, -66.824
1310.4000, -66.816
1310.6000, -67.013
1310.8000, -66.875
1311.0000, -66.957
1311.2000, -66.836
1311.4000, -66.921
1311.6000, -66.762
1311.8000, -66.555
1312.0000, -66.759
1312.2000, -66.756
1312.4000, -66.675
1312.6000, -66.326
1312.8000, -66.507
1313.0000, -66.459
1313.2000, -66.462
1313.4000, -66.414
1313.6000, -66.581
1313.8000, -66.431
1314.0000, -66.280
1314.2000, -66.160
1314.4000, -66.190
1314.6000, -66.344
1314.8000, -66.234
1315.0000, -66.242
1315.2000, -66.190
1315.4000, -66.054
1315.6000, -65.982
1315.8000, -66.105
1316.0000, -66.065
1316.2000, -66.116
1316.4000, -65.771
1316.6000, -66.056
1316.8000, -66.081
1317.0000, -65.922
1317.2000, -65.855
1317.4000, -65.865
1317.6000, -65.767
1317.8000, -65.765
1318.0000, -65.822
1318.2000, -65.824
1318.4000, -65.888
1318.6000, -65.919
1318.8000, -65.809
1319.0000, -65.704
1319.2000, -65.723
1319.4000, -65.698
1319.6000, -65.668
1319.8000, -65.780
1320.0000, -65.774
1320.2000, -65.864
1320.4000, -65.682
1320.6000, -65.753
1320.8000, -65.840
1321.0000, -65.981
1321.2000, -65.717
1321.4000, -65.852
1321.6000, -65.929
1321.8000, -65.680
1322.0000, -65.699
1322.2000, -65.648
1322.4000, -65.701
1322.6000, -65.897
1322.8000, -65.916
1323.0000, -65.951
1323.2000, -65.997
1323.4000, -66.201
1323.6000, -65.999
1323.8000, -66.132
1324.0000, -65.844
1324.2000, -66.067
1324.4000, -66.193
1324.6000, -66.321
1324.8000, -66.481
1325.0000, -66.471
1325.2000, -66.532
1325.4000, -66.642
1325.6000, -66.626
1325.8000, -66.784
1326.0000, -66.626
1326.2000, -66.738
1326.4000, -66.898
1326.6000, -66.628
1326.8000, -67.096
1327.0000, -66.780
1327.2000, -66.944
1327.4000, -67.140
1327.6000, -67.137
1327.8000, -67.498
1328.0000, -67.150
1328.2000, -67.267
1328.4000, -67.163
1328.6000, -67.233
1328.8000, -67.296
1329.0000, -67.373
1329.2000, -67.387
1329.4000, -67.428
1329.6000, -67.259
1329.8000, -67.255
1330.0000, -67.380
1330.2000, -67.516
1330.4000, -67.174
1330.6000, -67.060
1330.8000, -67.193
1331.0000, -67.130
1331.2000, -67.106
1331.4000, -67.027
1331.6000, -67.011
1331.8000, -66.766
1332.0000, -66.599
1332.2000, -66.887
1332.4000, -66.802
1332.6000, -66.547
1332.8000, -66.737
1333.0000, -66.604
1333.2000, -66.245
1333.4000, -66.373
1333.6000, -66.041
1333.8000, -66.040
1334.0000, -65.943
1334.2000, -65.828
1334.4000, -65.786
1334.6000, -65.617
1334.8000, -65.449
1335.0000, -65.589
1335.2000, -65.188
1335.4000, -65.201
1335.6000, -65.182
1335.8000, -64.999
1336.0000, -65.006
1336.2000, -65.164
1336.4000, -65.076
1336.6000, -64.754
1336.8000, -64.959
1337.0000, -64.871
1337.2000, -64.877
1337.4000, -64.794
1337.6000, -64.750
1337.8000, -64.717
1338.0000, -64.789
1338.2000, -64.861
1338.4000, -64.765
1338.6000, -64.644
1338.8000, -64.784
1339.0000, -64.690
1339.2000, -65.063
1339.4000, -64.891
1339.6000, -64.781
1339.8000, -65.124
1340.0000, -64.961
1340.2000, -65.133
1340.4000, -65.054
1340.6000, -65.230
1340.8000, -65.437
1341.0000, -65.407
1341.2000, -65.652
1341.4000, -65.792
1341.6000, -66.085
1341.8000, -66.030
1342.0000, -66.450
1342.2000, -66.561
1342.4000, -66.641
1342.6000, -67.091
1342.8000, -67.220
1343.0000, -67.552
1343.2000, -67.532
1343.4000, -68.107
1343.6000, -68.334
1343.8000, -68.819
1344.0000, -68.977
1344.2000, -69.421
1344.4000, -69.796
1344.6000, -70.180
1344.8000, -70.701
1345.0000, -71.090
1345.2000, -71.118
1345.4000, -71.776
1345.6000, -71.826
1345.8000, -72.359
1346.0000, -72.307
1346.2000, -72.448
1346.4000, -72.951
1346.6000, -72.741
1346.8000, -72.727
1347.0000, -72.431
1347.2000, -72.217
1347.4000, -72.007
1347.6000, -72.019
1347.8000, -71.591
1348.0000, -71.285
1348.2000, -70.833
1348.4000, -70.481
1348.6000, -69.940
1348.8000, -69.584
1349.0000, -69.204
1349.2000, -68.596
1349.4000, -68.647
1349.6000, -68.428
1349.8000, -68.166
1350.0000, -67.640
1350.2000, -67.517
1350.4000, -67.116
1350.6000, -66.820
1350.8000, -66.727
1351.0000, -66.403
1351.2000, -66.204
1351.4000, -66.078
1351.6000, -65.897
1351.8000, -65.828
1352.0000, -65.861
1352.2000, -65.631
1352.4000, -65.415
1352.6000, -65.634
1352.8000, -65.389
1353.0000, -65.365
1353.2000, -65.260
1353.4000, -65.359
1353.6000, -64.994
1353.8000, -65.062
1354.0000, -65.336
1354.2000, -65.535
1354.4000, -65.587
1354.6000, -65.893
1354.8000, -65.831
1355.0000, -66.188
1355.2000, -66.097
1355.4000, -66.463
1355.6000, -66.465
1355.8000, -66.947
1356.0000, -67.053
1356.2000, -67.057
1356.4000, -67.025
1356.6000, -67.344
1356.8000, -67.972
1357.0000, -68.244
1357.2000, -68.877
1357.4000, -69.355
1357.6000, -69.302
1357.8000, -69.847
1358.0000, -70.381
1358.2000, -71.055
1358.4000, -71.103
1358.6000, -72.355
1358.8000, -72.604
1359.0000, -73.704
1359.2000, -74.168
1359.4000, -76.071
1359.6000, -76.017
1359.8000, -77.396
1360.0000, -76.884
1360.2000, -76.407
1360.4000, -77.263
1360.6000, -76.512
1360.8000, -76.600
1361.0000, -75.757
1361.2000, -75.619
1361.4000, -74.550
1361.6000, -73.468
1361.8000, -73.421
1362.0000, -73.186
1362.2000, -71.951
1362.4000, -71.101
1362.6000, -70.276
1362.8000, -69.560
1363.0000, -68.521
1363.2000, -68.471
1363.4000, -68.245
1363.6000, -68.023
1363.8000, -67.909
1364.0000, -67.674
1364.2000, -67.665
1364.4000, -67.977
1364.6000, -67.831
1364.8000, -67.522
1365.0000, -67.260
1365.2000, -66.982
1365.4000, -66.722
1365.6000, -66.448
1365.8000, -66.551
1366.0000, -66.165
1366.2000, -66.329
1366.4000, -66.432
1366.6000, -66.546
1366.8000, -66.665
1367.0000, -66.861
1367.2000, -67.065
1367.4000, -67.516
1367.6000, -68.099
1367.8000, -68.370
1368.0000, -68.382
1368.2000, -68.564
1368.4000, -68.716
1368.6000, -69.291
1368.8000, -69.563
1369.0000, -69.930
1369.2000, -69.724
1369.4000, -70.264
1369.6000, -70.767
1369.8000, -71.807
1370.0000, -71.876
1370.2000, -73.308
1370.4000, -73.574
1370.6000, -74.136
1370.8000, -74.588
1371.0000, -75.249
1371.2000, -76.429
1371.4000, -76.698
1371.6000, -76.568
1371.8000, -75.822
1372.0000, -75.381
1372.2000, -74.666
1372.4000, -73.960
1372.6000, -73.650
1372.8000, -72.852
1373.0000, -72.335
1373.2000, -71.846
1373.4000, -71.317
1373.6000, -70.870
1373.8000, -70.557
1374.0000, -70.282
1374.2000, -69.639
1374.4000, -69.656
1374.6000, -69.334
1374.8000, -69.317
1375.0000, -68.823
1375.2000, -68.525
1375.4000, -68.449
1375.6000, -68.425
1375.8000, -68.271
1376.0000, -68.148
1376.2000, -68.103
1376.4000, -68.176
1376.6000, -68.439
1376.8000, -68.433
1377.0000, -68.551
1377.2000, -68.475
1377.4000, -68.501
1377.6000, -68.490
1377.8000, -68.943
1378.0000, -68.920
1378.2000, -69.561
1378.4000, -69.781
1378.6000, -70.404
1378.8000, -70.829
1379.0000, -71.055
1379.2000, -71.091
1379.4000, -71.032
1379.6000, -71.781
1379.8000, -72.247
1380.0000, -72.788
1380.2000, -73.504
1380.4000, -74.686
1380.6000, -74.939
1380.8000, -76.554
1381.0000, -76.121
1381.2000, -74.731
1381.4000, -75.043
1381.6000, -74.991
1381.8000, -74.596
1382.0000, -75.046
1382.2000, -75.499
1382.4000, -76.466
1382.6000, -76.864
1382.8000, -75.136
1383.0000, -75.556
1383.2000, -73.681
1383.4000, -73.364
1383.6000, -73.599
1383.8000, -72.649
1384.0000, -72.386
1384.2000, -71.996
1384.4000, -71.521
1384.6000, -71.592
1384.8000, -71.518
1385.0000, -71.386
1385.2000, -71.529
1385.4000, -71.382
1385.6000, -71.141
1385.8000, -70.959
1386.0000, -71.203
1386.2000, -70.810
1386.4000, -70.708
1386.6000, -70.677
1386.8000, -70.725
1387.0000, -70.700
1387.2000, -71.261
1387.4000, -71.431
1387.6000, -71.993
1387.8000, -72.294
1388.0000, -72.716
1388.2000, -72.969
1388.4000, -72.422
1388.6000, -72.464
1388.8000, -72.433
1389.0000, -72.741
1389.2000, -73.171
1389.4000, -73.408
1389.6000, -74.132
1389.8000, -74.476
1390.0000, -74.429
1390.2000, -74.686
1390.4000, -74.161
1390.6000, -74.655
1390.8000, -75.220
1391.0000, -74.746
1391.2000, -74.462
1391.4000, -74.514
1391.6000, -74.568
1391.8000, -74.132
1392.0000, -75.273
1392.2000, -74.959
1392.4000, -75.097
1392.6000, -75.063
1392.8000, -73.908
1393.0000, -73.566
1393.2000, -73.288
1393.4000, -73.376
1393.6000, -73.081
1393.8000, -73.186
1394.0000, -72.978
1394.2000, -72.855
1394.4000, -73.100
1394.6000, -73.435
1394.8000, -74.139
1395.0000, -73.788
1395.2000, -74.056
1395.4000, -73.453
1395.6000, -73.680
1395.8000, -73.264
1396.0000, -74.043
1396.2000, -74.238
1396.4000, -73.880
1396.6000, -74.812
1396.8000, -74.119
1397.0000, -74.164
1397.2000, -73.726
1397.4000, -74.214
1397.6000, -74.459
1397.8000, -74.790
1398.0000, -74.850
1398.2000, -74.264
1398.4000, -74.072
1398.6000, -74.363
1398.8000, -75.023
1399.0000, -74.887
1399.2000, -74.946
1399.4000, -74.661
1399.6000, -75.465
1399.8000, -75.880
1400.0000, -75.379
1400.2000, -75.400
1400.4000, -75.544
1400.6000, -75.591
1400.8000, -75.708
1401.0000, -75.421
1401.2000, -75.314
1401.4000, -75.687
1401.6000, -75.308
1401.8000, -74.313
1402.0000, -74.802
1402.2000, -74.990
1402.4000, -74.554
1402.6000, -74.761
1402.8000, -73.895
1403.0000, -74.930
1403.2000, -74.323
1403.4000, -74.436
1403.6000, -74.668
1403.8000, -75.009
1404.0000, -74.775
1404.2000, -75.420
1404.4000, -75.388
1404.6000, -76.220
1404.8000, -75.211
1405.0000, -74.885
1405.2000, -75.336
1405.4000, -75.036
1405.6000, -74.792
1405.8000, -74.198
1406.0000, -74.705
1406.2000, -74.558
1406.4000, -75.050
1406.6000, -74.296
1406.8000, -75.057
1407.0000, -74.582
1407.2000, -74.975
1407.4000, -74.562
1407.6000, -74.818
1407.8000, -74.625
1408.0000, -74.830
1408.2000, -74.475
1408.4000, -74.500
1408.6000, -75.619
1408.8000, -76.127
1409.0000, -75.934
1409.2000, -75.861
1409.4000, -75.815
1409.6000, -76.928
1409.8000, -75.642
1410.0000, -76.375
1410.2000, -75.757
1410.4000, -75.765
1410.6000, -75.690
1410.8000, -75.566
1411.0000, -75.370
1411.2000, -75.351
1411.4000, -75.683
1411.6000, -75.267
1411.8000, -76.072
1412.0000, -74.537
1412.2000, -74.998
1412.4000, -74.753
1412.6000, -74.483
1412.8000, -74.192
1413.0000, -74.419
1413.2000, -74.332
1413.4000, -73.903
1413.6000, -73.672
1413.8000, -73.713
1414.0000, -73.414
1414.2000, -73.766
1414.4000, -74.533
1414.6000, -73.865
1414.8000, -73.522
1415.0000, -73.945
1415.2000, -73.209
1415.4000, -73.773
1415.6000, -73.939
1415.8000, -73.834
1416.0000, -73.953
1416.2000, -74.668
1416.4000, -75.069
1416.6000, -75.597
1416.8000, -75.596
1417.0000, -75.129
1417.2000, -76.283
1417.4000, -76.808
1417.6000, -77.205
1417.8000, -77.610
1418.0000, -77.252
1418.2000, -77.809
1418.4000, -78.132
1418.6000, -77.851
1418.8000, -77.191
1419.0000, -77.672
1419.2000, -75.997
1419.4000, -75.975
1419.6000, -75.394
1419.8000, -75.540
1420.0000, -74.913
1420.2000, -74.681
1420.4000, -73.773
1420.6000, -73.438
1420.8000, -73.853
1421.0000, -73.381
1421.2000, -72.935
1421.4000, -72.584
1421.6000, -72.935
1421.8000, -73.147
1422.0000, -72.948
1422.2000, -72.977
1422.4000, -72.854
1422.6000, -73.288
1422.8000, -74.103
1423.0000, -74.313
1423.2000, -74.516
1423.4000, -75.691
1423.6000, -75.074
1423.8000, -75.204
1424.0000, -76.523
1424.2000, -77.476
1424.4000, -77.388
1424.6000, -77.984
1424.8000, -77.490
1425.0000, -78.384
1425.2000, -78.777
1425.4000, -79.159
1425.6000, -78.463
1425.8000, -78.027
1426.0000, -78.627
1426.2000, -77.020
1426.4000, -76.087
1426.6000, -75.343
1426.8000, -74.633
1427.0000, -75.513
1427.2000, -73.996
1427.4000, -74.148
1427.6000, -73.830
1427.8000, -72.992
1428.0000, -73.217
1428.2000, -72.736
1428.4000, -72.441
1428.6000, -72.558
1428.8000, -72.390
1429.0000, -72.752
1429.2000, -73.226
1429.4000, -73.346
1429.6000, -73.654
1429.8000, -73.908
1430.0000, -74.389
1430.2000, -75.325
1430.4000, -75.192
1430.6000, -76.710
1430.8000, -77.468
1431.0000, -77.942
1431.2000, -80.429
1431.4000, -79.113
1431.6000, -78.165
1431.8000, -81.420
1432.0000, -81.261
1432.2000, -81.136
1432.4000, -79.309
1432.6000, -79.866
1432.8000, -78.815
1433.0000, -77.063
1433.2000, -76.159
1433.4000, -75.378
1433.6000, -75.291
1433.8000, -74.763
1434.0000, -74.075
1434.2000, -73.919
1434.4000, -73.588
1434.6000, -73.973
1434.8000, -72.967
1435.0000, -72.591
1435.2000, -72.851
1435.4000, -72.871
1435.6000, -73.230
1435.8000, -73.252
1436.0000, -73.340
1436.2000, -73.115
1436.4000, -73.945
1436.6000, -75.215
1436.8000, -75.662
1437.0000, -75.974
1437.2000, -75.937
1437.4000, -78.055
1437.6000, -77.966
1437.8000, -80.699
1438.0000, -81.628
1438.2000, -80.196
1438.4000, -86.199
1438.6000, -82.516
1438.8000, -81.317
1439.0000, -78.979
1439.2000, -78.955
1439.4000, -78.211
1439.6000, -77.451
1439.8000, -75.684
1440.0000, -75.990
1440.2000, -74.860
1440.4000, -74.840
1440.6000, -74.388
1440.8000, -74.058
1441.0000, -73.137
1441.2000, -72.832
1441.4000, -73.406
1441.6000, -73.382
1441.8000, -73.110
1442.0000, -73.025
1442.2000, -73.127
1442.4000, -72.979
1442.6000, -73.973
1442.8000, -74.418
1443.0000, -74.930
1443.2000, -75.683
1443.4000, -76.569
1443.6000, -76.458
1443.8000, -77.472
1444.0000, -79.728
1444.2000, -82.213
1444.4000, -80.581
1444.6000, -80.765
1444.8000, -81.497
1445.0000, -86.777
1445.2000, -84.125
1445.4000, -79.979
1445.6000, -79.273
1445.8000, -80.552
1446.0000, -77.391
1446.2000, -74.844
1446.4000, -75.504
1446.6000, -75.332
1446.8000, -75.290
1447.0000, -73.826
1447.2000, -74.152
1447.4000, -73.556
1447.6000, -73.045
1447.8000, -72.939
1448.0000, -73.355
1448.2000, -73.243
1448.4000, -73.712
1448.6000, -73.601
1448.8000, -73.587
1449.0000, -74.507
1449.2000, -74.834
1449.4000, -75.543
1449.6000, -77.494
1449.8000, -78.229
1450.0000, -78.729
1450.2000, -78.824
1450.4000, -80.571
1450.6000, -81.106
1450.8000, -83.441
1451.0000, -90.737
1451.2000, -84.314
1451.4000, -83.601
1451.6000, -80.955
1451.8000, -79.911
1452.0000, -79.180
1452.2000, -78.763
1452.4000, -77.121
1452.6000, -76.318
1452.8000, -75.412
1453.0000, -75.069
1453.2000, -74.139
1453.4000, -74.101
1453.6000, -73.433
1453.8000, -73.575
1454.0000, -73.461
1454.2000, -73.912
1454.4000, -73.779
1454.6000, -74.097
1454.8000, -74.236
1455.0000, -74.482
1455.2000, -74.989
1455.4000, -75.504
1455.6000, -76.313
1455.8000, -76.312
1456.0000, -77.894
1456.2000, -79.490
1456.4000, -77.879
1456.6000, -80.776
1456.8000, -79.973
1457.0000, -80.983
1457.2000, -81.495
1457.4000, -82.327
1457.6000, -81.105
1457.8000, -80.222
1458.0000, -78.810
1458.2000, -79.220
1458.4000, -76.547
1458.6000, -76.218
1458.8000, -75.715
1459.0000, -75.387
1459.2000, -75.833
1459.4000, -74.495
1459.6000, -74.492
1459.8000, -73.947
1460.0000, -74.482
1460.2000, -74.095
1460.4000, -74.612
1460.6000, -74.058
1460.8000, -75.314
1461.0000, -74.998
1461.2000, -75.401
1461.4000, -75.608
1461.6000, -77.118
1461.8000, -76.101
1462.0000, -78.836
1462.2000, -81.020
1462.4000, -79.198
1462.6000, -84.695
1462.8000, -84.350
1463.0000, -82.131
1463.2000, -81.932
1463.4000, -81.247
1463.6000, -80.408
1463.8000, -79.198
1464.0000, -78.660
1464.2000, -80.106
1464.4000, -77.715
1464.6000, -76.162
1464.8000, -75.571
1465.0000, -75.985
1465.2000, -76.041
1465.4000, -75.983
1465.6000, -76.064
1465.8000, -74.809
1466.0000, -75.556
1466.2000, -74.803
1466.4000, -75.178
1466.6000, -75.574
1466.8000, -75.594
1467.0000, -76.371
1467.2000, -77.717
1467.4000, -77.510
1467.6000, -77.982
1467.8000, -79.451
1468.0000, -78.988
1468.2000, -79.281
1468.4000, -79.714
1468.6000, -80.320
1468.8000, -80.431
1469.0000, -79.267
1469.2000, -80.077
1469.4000, -79.232
1469.6000, -78.719
1469.8000, -77.970
1470.0000, -78.051
1470.2000, -77.553
1470.4000, -76.488
1470.6000, -76.361
1470.8000, -75.852
1471.0000, -75.804
1471.2000, -75.751
1471.4000, -75.829
1471.6000, -75.354
1471.8000, -75.464
1472.0000, -75.648
1472.2000, -75.479
1472.4000, -77.092
1472.6000, -76.806
1472.8000, -76.586
1473.0000, -77.915
1473.2000, -77.398
1473.4000, -80.151
1473.6000, -79.185
1473.8000, -79.416
1474.0000, -78.511
1474.2000, -80.221
1474.4000, -82.546
1474.6000, -83.740
1474.8000, -79.482
1475.0000, -81.225
1475.2000, -80.121
1475.4000, -78.513
1475.6000, -79.160
1475.8000, -78.035
1476.0000, -78.970
1476.2000, -77.201
1476.4000, -77.601
1476.6000, -76.241
1476.8000, -76.204
1477.0000, -76.384
1477.2000, -76.685
1477.4000, -75.780
1477.6000, -75.735
1477.8000, -75.823
1478.0000, -76.352
1478.2000, -76.086
1478.4000, -76.733
1478.6000, -78.251
1478.8000, -77.982
1479.0000, -78.604
1479.2000, -77.961
1479.4000, -79.156
1479.6000, -77.452
1479.8000, -80.604
1480.0000, -80.935
1480.2000, -79.421
1480.4000, -78.862
1480.6000, -80.783
1480.8000, -79.067
1481.0000, -81.024
1481.2000, -77.970
1481.4000, -78.597
1481.6000, -77.019
1481.8000, -77.589
1482.0000, -77.254
1482.2000, -76.736
1482.4000, -76.770
1482.6000, -76.274
1482.8000, -76.730
1483.0000, -76.851
1483.2000, -76.353
1483.4000, -77.461
1483.6000, -77.077
1483.8000, -76.641
1484.0000, -77.171
1484.2000, -78.119
1484.4000, -78.965
1484.6000, -77.730
1484.8000, -78.668
1485.0000, -79.438
1485.2000, -79.283
1485.4000, -80.828
1485.6000, -78.926
1485.8000, -79.975
1486.0000, -80.668
1486.2000, -79.137
1486.4000, -79.652
1486.6000, -79.037
1486.8000, -78.165
1487.0000, -79.610
1487.2000, -78.925
1487.4000, -79.879
1487.6000, -79.073
1487.8000, -77.023
1488.0000, -78.684
1488.2000, -77.381
1488.4000, -78.317
1488.6000, -76.383
1488.8000, -78.033
1489.0000, -78.819
1489.2000, -77.866
1489.4000, -79.057
1489.6000, -78.192
1489.8000, -79.751
1490.0000, -79.051
1490.2000, -79.070
1490.4000, -80.371
1490.6000, -80.030
1490.8000, -79.355
1491.0000, -78.941
1491.2000, -84.935
1491.4000, -79.160
1491.6000, -80.997
1491.8000, -78.279
1492.0000, -78.639
1492.2000, -78.830
1492.4000, -77.177
1492.6000, -77.695
1492.8000, -79.298
1493.0000, -79.878
1493.2000, -79.099
1493.4000, -77.107
1493.6000, -76.835
1493.8000, -77.409
1494.0000, -78.454
1494.2000, -78.583
1494.4000, -77.858
1494.6000, -77.425
1494.8000, -78.588
1495.0000, -77.540
1495.2000, -77.924
1495.4000, -78.425
1495.6000, -78.206
1495.8000, -78.285
1496.0000, -78.643
1496.2000, -79.301
1496.4000, -79.012
1496.6000, -80.457
1496.8000, -78.889
1497.0000, -78.459
1497.2000, -79.393
1497.4000, -79.078
1497.6000, -79.588
1497.8000, -79.556
1498.0000, -80.886
1498.2000, -79.651
1498.4000, -78.730
1498.6000, -78.718
1498.8000, -78.907
1499.0000, -78.383
1499.2000, -78.962
1499.4000, -79.759
1499.6000, -80.018
1499.8000, -79.692
1500.0000, -79.671
1500.2000, -80.272
1500.4000, -80.292
1500.6000, -78.322
1500.8000, -78.100
1501.0000, -79.054
1501.2000, -79.709
1501.4000, -78.814
1501.6000, -79.151
1501.8000, -77.416
1502.0000, -78.702
1502.2000, -78.353
1502.4000, -78.580
1502.6000, -80.794
1502.8000, -81.160
1503.0000, -79.860
1503.2000, -80.478
1503.4000, -78.409
1503.6000, -82.364
1503.8000, -80.316
1504.0000, -79.305
1504.2000, -78.734
1504.4000, -77.677
1504.6000, -80.228
1504.8000, -79.811
1505.0000, -78.837
1505.2000, -79.480
1505.4000, -78.345
1505.6000, -79.902
1505.8000, -79.245
1506.0000, -79.482
1506.2000, -78.131
1506.4000, -78.636
1506.6000, -77.324
1506.8000, -79.449
1507.0000, -77.342
1507.2000, -79.936
1507.4000, -77.712
1507.6000, -79.215
1507.8000, -78.827
1508.0000, -80.205
1508.2000, -81.151
1508.4000, -81.247
1508.6000, -79.394
1508.8000, -79.753
1509.0000, -78.939
1509.2000, -79.880
1509.4000, -80.218
1509.6000, -81.829
1509.8000, -80.113
1510.0000, -80.549
1510.2000, -80.440
1510.4000, -78.558
1510.6000, -78.649
1510.8000, -78.729
1511.0000, -78.837
1511.2000, -78.452
1511.4000, -77.452
1511.6000, -79.797
1511.8000, -78.716
1512.0000, -78.885
1512.2000, -77.985
1512.4000, -79.479
1512.6000, -79.747
1512.8000, -81.755
1513.0000, -80.193
1513.2000, -80.505
1513.4000, -80.981
1513.6000, -79.899
1513.8000, -84.192
1514.0000, -79.803
1514.2000, -82.055
1514.4000, -81.482
1514.6000, -81.816
1514.8000, -81.069
1515.0000, -80.458
1515.2000, -81.325
1515.4000, -80.569
1515.6000, -79.280
1515.8000, -79.079
1516.0000, -78.950
1516.2000, -78.909
1516.4000, -79.386
1516.6000, -78.791
1516.8000, -78.471
1517.0000, -77.758
1517.2000, -77.986
1517.4000, -79.463
1517.6000, -78.834
1517.8000, -79.482
1518.0000, -80.092
1518.2000, -78.373
1518.4000, -83.083
1518.6000, -81.692
1518.8000, -80.766
1519.0000, -81.581
1519.2000, -80.008
1519.4000, -81.553
1519.6000, -81.782
1519.8000, -80.535
1520.0000, -83.169
1520.2000, -81.975
1520.4000, -81.350
1520.6000, -80.372
1520.8000, -79.827
1521.0000, -80.159
1521.2000, -80.941
1521.4000, -77.924
1521.6000, -79.351
1521.8000, -78.583
1522.0000, -78.982
1522.2000, -79.025
1522.4000, -79.516
1522.6000, -78.602
1522.8000, -79.272
1523.0000, -79.025
1523.2000, -80.541
1523.4000, -80.866
1523.6000, -79.451
1523.8000, -82.671
1524.0000, -83.849
1524.2000, -82.902
1524.4000, -84.121
1524.6000, -82.178
1524.8000, -84.093
1525.0000, -86.835
1525.2000, -85.949
1525.4000, -82.972
1525.6000, -79.690
1525.8000, -79.285
1526.0000, -79.182
1526.2000, -81.386
1526.4000, -78.327
1526.6000, -78.110
1526.8000, -79.019
1527.0000, -78.745
1527.2000, -79.837
1527.4000, -78.936
1527.6000, -77.913
1527.8000, -77.908
1528.0000, -81.042
1528.2000, -83.225
1528.4000, -80.454
1528.6000, -83.886
1528.8000, -79.920
1529.0000, -80.556
1529.2000, -96.616
1529.4000,-210.000
1529.6000, -82.249
1529.8000, -85.036
1530.0000, -93.565
1530.2000, -82.589
1530.4000, -82.216
1530.6000, -84.098
1530.8000, -80.546
1531.0000, -80.541
1531.2000, -80.498
1531.4000, -78.903
1531.6000, -78.781
1531.8000, -78.015
1532.0000, -78.581
1532.2000, -78.400
1532.4000, -77.780
1532.6000, -80.190
1532.8000, -78.197
1533.0000, -78.826
1533.2000, -81.880
1533.4000, -80.231
1533.6000, -81.005
1533.8000, -81.532
1534.0000, -88.398
1534.2000, -82.159
1534.4000, -84.395
1534.6000,-210.000
1534.8000, -94.304
1535.0000,-210.000
1535.2000, -82.028
1535.4000, -81.483
1535.6000, -82.065
1535.8000, -82.550
1536.0000, -80.181
1536.2000, -81.957
1536.4000, -79.995
1536.6000, -79.825
1536.8000, -77.575
1537.0000, -79.686
1537.2000, -82.105
1537.4000, -79.873
1537.6000, -79.757
1537.8000, -80.717
1538.0000, -80.080
1538.2000, -80.496
1538.4000, -83.923
1538.6000, -89.736
1538.8000, -82.399
1539.0000, -83.704
1539.2000, -85.535
1539.4000,-210.000
1539.6000, -84.990
1539.8000, -90.393
1540.0000, -89.635
1540.2000, -85.741
1540.4000,-210.000
1540.6000, -83.502
1540.8000, -80.330
1541.0000, -81.798
1541.2000, -81.747
1541.4000, -80.599
1541.6000, -79.103
1541.8000, -79.707
1542.0000, -78.541
1542.2000, -78.965
1542.4000, -78.377
1542.6000, -78.848
1542.8000, -80.067
1543.0000, -78.943
1543.2000, -81.948
1543.4000, -81.009
1543.6000, -83.350
1543.8000, -83.057
1544.0000, -84.023
1544.2000, -87.109
1544.4000, -83.282
1544.6000, -83.530
1544.8000, -86.854
1545.0000,-210.000
1545.2000, -86.974
1545.4000, -84.426
1545.6000, -87.051
1545.8000, -82.884
1546.0000, -81.828
1546.2000, -80.989
1546.4000, -79.637
1546.6000, -80.993
1546.8000, -79.193
1547.0000, -79.510
1547.2000, -81.708
1547.4000, -79.234
1547.6000, -80.025
1547.8000, -79.717
1548.0000, -82.126
1548.2000, -80.553
1548.4000, -80.053
1548.6000, -84.426
1548.8000, -80.746
1549.0000,-210.000
1549.2000,-210.000
1549.4000,-210.000
1549.6000, -88.174
1549.8000, -90.293
1550.0000,-210.000
1550.2000, -91.234
1550.4000, -89.874
1550.6000, -83.762
1550.8000, -87.130
1551.0000, -80.039
1551.2000, -82.673
1551.4000, -80.421
1551.6000, -78.964
1551.8000, -79.663
1552.0000, -78.000
1552.2000, -79.281
1552.4000, -81.423
1552.6000, -80.114
1552.8000, -80.729
1553.0000, -80.619
1553.2000, -79.500
1553.4000, -82.328
1553.6000, -82.535
1553.8000, -82.618
1554.0000, -90.091
1554.2000, -83.071
1554.4000, -85.274
1554.6000,-210.000
1554.8000,-210.000
1555.0000,-210.000
1555.2000, -82.058
1555.4000, -81.649
1555.6000, -84.121
1555.8000, -81.848
1556.0000, -83.008
1556.2000, -79.178
1556.4000, -79.717
1556.6000, -79.270
1556.8000, -80.342
1557.0000, -78.307
1557.2000, -79.470
1557.4000, -81.871
1557.6000, -78.921
1557.8000, -80.625
1558.0000, -81.074
1558.2000, -80.542
1558.4000, -78.910
1558.6000, -82.733
1558.8000, -84.428
1559.0000, -88.333
1559.2000,-210.000
1559.4000,-210.000
1559.6000, -94.588
1559.8000,-210.000
1560.0000,-210.000
1560.2000,-210.000
1560.4000,-210.000
1560.6000, -83.662
1560.8000, -82.343
1561.0000, -81.926
1561.2000, -78.502
1561.4000, -82.296
1561.6000, -80.310
1561.8000, -79.228
1562.0000, -79.084
1562.2000, -81.995
1562.4000, -80.404
1562.6000, -81.313
1562.8000, -80.929
1563.0000, -84.910
1563.2000, -83.323
1563.4000, -87.259
1563.6000, -83.346
1563.8000, -82.951
1564.0000, -83.620
1564.2000, -86.665
1564.4000, -83.405
1564.6000, -82.862
1564.8000, -85.103
1565.0000, -88.178
1565.2000,-210.000
1565.4000, -82.050
1565.6000, -83.059
1565.8000, -85.339
1566.0000, -84.967
1566.2000, -79.086
1566.4000, -81.102
1566.6000, -85.295
1566.8000, -80.447
1567.0000, -79.346
1567.2000, -79.249
1567.4000, -79.286
1567.6000, -78.922
1567.8000, -79.953
1568.0000, -83.799
1568.2000, -83.040
1568.4000, -83.788
1568.6000, -85.129
1568.8000, -85.658
1569.0000, -89.553
1569.2000, -83.369
1569.4000, -81.539
1569.6000, -95.209
1569.8000, -83.083
1570.0000, -84.958
1570.2000, -84.136
1570.4000, -83.726
1570.6000, -80.636
1570.8000, -88.054
1571.0000, -80.239
1571.2000, -84.047
1571.4000, -83.956
1571.6000, -82.525
1571.8000, -79.240
1572.0000, -80.640
1572.2000, -81.103
1572.4000, -80.744
1572.6000, -79.859
1572.8000, -81.477
1573.0000, -83.504
1573.2000, -83.337
1573.4000, -86.301
1573.6000, -81.752
1573.8000, -86.024
1574.0000, -85.005
1574.2000, -84.613
1574.4000, -85.848
1574.6000, -87.947
1574.8000, -87.079
1575.0000, -82.396
1575.2000, -83.475
1575.4000, -80.027
1575.6000, -89.703
1575.8000, -85.944
1576.0000, -81.272
1576.2000, -80.069
1576.4000, -80.175
1576.6000, -79.513
1576.8000, -81.522
1577.0000, -80.979
1577.2000, -84.097
1577.4000, -84.109
1577.6000, -83.356
1577.8000, -80.513
1578.0000, -82.489
1578.2000, -88.058
1578.4000, -83.916
1578.6000, -95.251
1578.8000, -82.579
1579.0000, -85.264
1579.2000, -85.547
1579.4000, -86.221
1579.6000,-210.000
1579.8000, -83.617
1580.0000, -86.870
1580.2000, -84.241
1580.4000, -95.184
1580.6000, -82.349
1580.8000, -80.675
1581.0000, -90.027
1581.2000, -82.106
1581.4000, -80.506
1581.6000, -81.549
1581.8000, -82.417
1582.0000, -80.744
1582.2000, -82.263
1582.4000, -90.852
1582.6000, -81.918
1582.8000, -83.671
1583.0000, -83.824
1583.2000, -83.029
1583.4000, -84.457
1583.6000, -85.712
1583.8000, -85.828
1584.0000, -96.147
1584.2000, -84.683
1584.4000, -84.321
1584.6000, -85.811
1584.8000, -80.930
1585.0000, -84.663
1585.2000, -85.608
1585.4000, -88.512
1585.6000, -82.494
1585.8000, -82.686
1586.0000, -79.849
1586.2000, -87.305
1586.4000, -80.382
1586.6000, -81.771
1586.8000, -85.516
1587.0000, -80.439
1587.2000, -84.088
1587.4000, -82.973
1587.6000, -79.162
1587.8000, -87.204
1588.0000, -89.973
1588.2000, -84.699
1588.4000, -87.160
1588.6000, -82.308
1588.8000, -88.537
1589.0000,-210.000
1589.2000, -93.660
1589.4000,-210.000
1589.6000, -83.190
1589.8000, -83.574
1590.0000, -82.737
1590.2000,-210.000
1590.4000, -84.631
1590.6000, -83.728
1590.8000, -89.046
1591.0000, -80.509
1591.2000, -82.248
1591.4000, -86.988
1591.6000, -82.393
1591.8000, -83.080
1592.0000, -88.193
1592.2000, -85.391
1592.4000, -82.067
1592.6000,-210.000
1592.8000, -85.364
1593.0000, -82.018
1593.2000, -80.887
1593.4000,-210.000
1593.6000, -95.204
1593.8000, -81.609
1594.0000, -85.345
1594.2000,-210.000
1594.4000, -87.122
1594.6000, -85.216
1594.8000, -83.009
1595.0000,-210.000
1595.2000, -84.412
1595.4000, -86.411
1595.6000, -88.724
1595.8000,-210.000
1596.0000, -80.712
1596.2000, -83.514
1596.4000, -80.556
1596.6000, -81.324
1596.8000, -83.927
1597.0000,-210.000
1597.2000, -81.741
1597.4000,-210.000
1597.6000, -80.824
1597.8000, -83.569
1598.0000,-210.000
1598.2000, -88.123
1598.4000,-210.000
1598.6000,-210.000
1598.8000, -86.471
1599.0000, -91.112
1599.2000,-210.000
1599.4000, -85.563
1599.6000,-210.000
1599.8000, -87.822
1600.0000, -89.277
1600.2000, -86.808
1600.4000, -85.182
1600.6000,-210.000
1600.8000, -88.849
1601.0000, -86.547
1601.2000, -86.237
1601.4000, -83.174
1601.6000, -81.868
1601.8000, -83.738
1602.0000, -90.435
1602.2000, -85.701
1602.4000, -88.613
1602.6000, -87.999
1602.8000, -83.658
1603.0000, -90.280
1603.2000, -86.927
1603.4000, -81.961
1603.6000,-210.000
1603.8000,-210.000
1604.0000, -94.363
1604.2000, -85.938
1604.4000, -81.739
1604.6000, -88.194
1604.8000, -85.030
1605.0000,-210.000
1605.2000, -85.178
1605.4000, -84.218
1605.6000, -81.690
1605.8000, -81.724
1606.0000, -83.262
1606.2000, -92.740
1606.4000, -84.190
1606.6000, -82.739
1606.8000, -83.394
1607.0000, -87.569
1607.2000, -80.499
1607.4000,-210.000
1607.6000, -88.277
1607.8000, -83.216
1608.0000, -84.628
1608.2000,-210.000
1608.4000, -97.312
1608.6000,-210.000
1608.8000,-210.000
1609.0000, -94.928
1609.2000,-210.000
1609.4000, -86.505
1609.6000, -85.673
1609.8000, -83.990
1610.0000,-210.000
1610.2000, -84.227
1610.4000, -86.567
1610.6000,-210.000
1610.8000, -87.810
1611.0000, -83.204
1611.2000, -82.665
1611.4000, -83.780
1611.6000, -84.323
1611.8000, -86.603
1612.0000, -86.774
1612.2000,-210.000
1612.4000, -86.845
1612.6000, -87.792
1612.8000, -84.832
1613.0000,-210.000
1613.2000,-210.000
1613.4000, -97.348
1613.6000,-210.000
1613.8000, -86.637
1614.0000, -85.709
1614.2000, -85.642
1614.4000, -89.337
1614.6000,-210.000
1614.8000, -88.189
1615.0000,-210.000
1615.2000,-102.360
1615.4000, -82.222
1615.6000, -97.074
1615.8000,-210.000
1616.0000,-210.000
1616.2000, -90.156
1616.4000,-210.000
1616.6000,-102.760
1616.8000, -83.225
1617.0000, -80.425
1617.2000,-210.000
1617.4000, -87.963
1617.6000, -81.596
1617.8000,-210.000
1618.0000, -84.733
1618.2000,-210.000
1618.4000, -84.967
1618.6000,-210.000
1618.8000, -85.562
1619.0000,-210.000
1619.2000,-210.000
1619.4000,-210.000
1619.6000,-210.000
1619.8000, -84.269
1620.0000,-210.000
1620.2000,-210.000
1620.4000, -83.729
1620.6000, -94.319
1620.8000, -91.488
1621.0000, -84.290
1621.2000, -84.484
1621.4000, -85.321
1621.6000,-210.000
1621.8000,-210.000
1622.0000, -87.525
1622.2000, -83.587
1622.4000, -85.016
1622.6000, -83.574
1622.8000, -86.761
1623.0000, -83.804
1623.2000, -82.739
1623.4000, -81.221
1623.6000, -86.295
1623.8000, -82.085
1624.0000,-210.000
1624.2000, -83.110
1624.4000, -90.239
1624.6000, -82.425
1624.8000,-210.000
1625.0000,-210.000
1625.2000, -84.743
1625.4000,-210.000
1625.6000, -84.832
1625.8000,-210.000
1626.0000, -83.449
1626.2000, -90.684
1626.4000, -90.468
1626.6000, -83.402
1626.8000, -82.897
1627.0000, -87.630
1627.2000,-210.000
1627.4000, -99.417
1627.6000, -82.609
1627.8000, -85.775
1628.0000, -91.357
1628.2000, -81.467
1628.4000,-210.000
1628.6000, -83.768
1628.8000, -86.440
1629.0000,-210.000
1629.2000, -83.949
1629.4000, -79.932
1629.6000, -84.114
1629.8000,-210.000
1630.0000, -93.402
1630.2000, -85.696
1630.4000,-210.000
1630.6000,-210.000
1630.8000, -97.096
1631.0000, -82.916
1631.2000, -89.890
1631.4000,-210.000
1631.6000, -87.919
1631.8000, -84.718
1632.0000,-210.000
1632.2000, -83.549
1632.4000, -93.621
1632.6000, -86.885
1632.8000, -84.776
1633.0000,-210.000
1633.2000, -82.911
1633.4000, -90.023
1633.6000,-210.000
1633.8000,-210.000
1634.0000, -88.204
1634.2000, -90.951
1634.4000,-210.000
1634.6000,-210.000
1634.8000, -92.323
1635.0000, -84.752
1635.2000, -87.494
1635.4000, -88.357
1635.6000, -84.502
1635.8000,-210.000
1636.0000,-210.000
1636.2000, -86.757
1636.4000,-210.000
1636.6000, -95.463
1636.8000, -85.201
1637.0000, -84.430
1637.2000, -81.105
1637.4000, -89.548
1637.6000, -83.633
1637.8000, -81.662
1638.0000,-210.000
1638.2000, -84.165
1638.4000,-210.000
1638.6000, -84.564
1638.8000,-103.456
1639.0000,-210.000
1639.2000,-210.000
1639.4000,-210.000
1639.6000,-210.000
1639.8000, -86.276
1640.0000, -91.124
1640.2000,-108.692
1640.4000, -86.320
1640.6000, -88.240
1640.8000, -94.363
1641.0000,-210.000
1641.2000, -82.770
1641.4000, -91.363
1641.6000, -89.182
1641.8000,-116.065
1642.0000, -89.604
1642.2000, -84.893
1642.4000, -94.112
1642.6000, -85.373
1642.8000,-210.000
1643.0000,-210.000
1643.2000, -84.081
1643.4000,-210.000
1643.6000,-210.000
1643.8000, -83.897
1644.0000, -87.413
1644.2000, -88.359
1644.4000, -82.026
1644.6000,-210.000
1644.8000,-210.000
1645.0000, -82.971
1645.2000, -84.875
1645.4000,-210.000
1645.6000,-210.000
1645.8000,-210.000
1646.0000, -88.631
1646.2000, -86.459
1646.4000, -82.078
1646.6000, -92.073
1646.8000, -84.551
1647.0000,-210.000
1647.2000, -83.413
1647.4000,-210.000
1647.6000, -94.333
1647.8000,-210.000
1648.0000, -87.343
1648.2000,-210.000
1648.4000, -83.329
1648.6000, -87.569
1648.8000,-210.000
1649.0000, -83.346
1649.2000,-210.000
1649.4000,-210.000
1649.6000, -90.985
1649.8000, -88.859
1650.0000, -84.929
1650.2000, -88.242
1650.4000, -88.153
1650.6000, -87.623
1650.8000, -84.724
1651.0000, -88.448
1651.2000, -91.542
1651.4000, -86.621
1651.6000,-210.000
1651.8000,-210.000
1652.0000,-210.000
1652.2000,-210.000
1652.4000,-210.000
1652.6000, -89.954
1652.8000, -85.396
1653.0000,-210.000
1653.2000, -82.660
1653.4000, -86.422
1653.6000,-210.000
1653.8000,-210.000
1654.0000,-210.000
1654.2000,-210.000
1654.4000,-210.000
1654.6000, -85.271
1654.8000, -83.207
1655.0000, -84.550
1655.2000,-210.000
1655.4000, -90.576
1655.6000,-210.000
1655.8000,-210.000
1656.0000,-210.000
1656.2000,-210.000
1656.4000, -91.355
1656.6000, -83.649
1656.8000, -91.480
1657.0000,-210.000
1657.2000, -84.219
1657.4000, -82.229
1657.6000,-210.000
1657.8000, -89.425
1658.0000,-210.000
1658.2000,-210.000
1658.4000, -82.936
1658.6000,-210.000
1658.8000, -82.973
1659.0000,-210.000
1659.2000, -86.462
1659.4000,-210.000
1659.6000, -83.928
1659.8000, -84.046
1660.0000, -82.816
1660.2000,-210.000
1660.4000, -87.892
1660.6000, -93.071
1660.8000, -88.418
1661.0000, -82.645
1661.2000, -83.593
1661.4000, -80.359
1661.6000,-210.000
1661.8000,-210.000
1662.0000,-210.000
1662.2000, -80.299
1662.4000, -83.566
1662.6000, -91.018
1662.8000, -89.256
1663.0000, -85.788
1663.2000, -89.746
1663.4000,-210.000
1663.6000,-210.000
1663.8000, -85.748
1664.0000,-210.000
1664.2000, -88.069
1664.4000,-210.000
1664.6000, -81.323
1664.8000,-210.000
1665.0000, -89.960
1665.2000,-210.000
1665.4000, -81.207
1665.6000, -85.424
1665.8000, -81.246
1666.0000,-210.000
1666.2000, -84.901
1666.4000, -81.095
1666.6000, -83.885
1666.8000, -85.370
1667.0000, -82.085
1667.2000,-210.000
1667.4000,-210.000
1667.6000, -81.781
1667.8000, -85.042
1668.0000, -81.223
1668.2000, -80.550
1668.4000,-210.000
1668.6000,-210.000
1668.8000,-210.000
1669.0000,-210.000
1669.2000, -83.256
1669.4000,-210.000
1669.6000, -87.438
1669.8000, -83.170
1670.0000,-210.000
1670.2000,-210.000
1670.4000, -79.271
1670.6000,-210.000
1670.8000, -86.143
1671.0000,-210.000
1671.2000, -83.897
1671.4000, -79.150
1671.6000, -82.765
1671.8000,-210.000
1672.0000, -81.251
1672.2000,-210.000
1672.4000, -78.695
1672.6000, -78.993
1672.8000, -81.187
1673.0000,-210.000
1673.2000,-210.000
1673.4000,-210.000
1673.6000,-210.000
1673.8000,-210.000
1674.0000,-210.000
1674.2000, -84.789
1674.4000, -84.532
1674.6000, -81.869
1674.8000,-210.000
1675.0000, -89.207
1675.2000, -79.465
1675.4000, -82.274
1675.6000,-210.000
1675.8000, -80.580
1676.0000,-210.000
1676.2000,-210.000
1676.4000,-210.000
1676.6000,-210.000
1676.8000, -81.426
1677.0000,-210.000
1677.2000,-210.000
1677.4000,-210.000
1677.6000,-210.000
1677.8000,-210.000
1678.0000,-210.000
1678.2000,-210.000
1678.4000, -84.357
1678.6000, -92.876
1678.8000, -93.369
1679.0000,-210.000
1679.2000,-210.000
1679.4000, -80.282
1679.6000,-210.000
1679.8000, -79.631
1680.0000,-210.000
1680.2000,-210.000
1680.4000, -87.324
1680.6000,-107.404
1680.8000,-210.000
1681.0000, -82.211
1681.2000, -82.634
1681.4000, -85.022
1681.6000,-210.000
1681.8000,-210.000
1682.0000,-210.000
1682.2000,-210.000
1682.4000, -76.549
1682.6000,-210.000
1682.8000, -77.331
1683.0000,-210.000
1683.2000,-210.000
1683.4000,-210.000
1683.6000,-210.000
1683.8000, -83.655
1684.0000,-210.000
1684.2000,-210.000
1684.4000, -84.891
1684.6000,-210.000
1684.8000, -82.183
1685.0000,-210.000
1685.2000,-210.000
1685.4000, -79.383
1685.6000,-210.000
1685.8000,-210.000
1686.0000,-210.000
1686.2000,-210.000
1686.4000, -74.715
1686.6000,-210.000
1686.8000,-210.000
1687.0000,-210.000
1687.2000,-210.000
1687.4000, -77.883
1687.6000,-210.000
1687.8000, -75.960
1688.0000, -82.071
1688.2000,-210.000
1688.4000, -78.323
1688.6000, -91.683
1688.8000, -85.968
1689.0000, -83.218
1689.2000,-210.000
1689.4000, -81.656
1689.6000,-210.000
1689.8000, -78.686
1690.0000,-210.000
1690.2000,-210.000
1690.4000, -78.317
1690.6000, -79.580
1690.8000, -77.213
1691.0000, -82.347
1691.2000, -94.465
1691.4000, -77.492
1691.6000,-210.000
1691.8000,-210.000
1692.0000, -78.737
1692.2000,-210.000
1692.4000,-210.000
1692.6000,-210.000
1692.8000,-210.000
1693.0000,-210.000
1693.2000,-210.000
1693.4000, -81.137
1693.6000,-210.000
1693.8000, -80.318
1694.0000,-210.000
1694.2000,-210.000
1694.4000,-210.000
1694.6000, -80.002
1694.8000, -78.073
1695.0000,-210.000
1695.2000, -72.741
1695.4000, -77.291
1695.6000,-210.000
1695.8000,-210.000
1696.0000,-210.000
1696.2000, -75.426
1696.4000, -82.368
1696.6000, -77.713
1696.8000, -75.167
1697.0000, -74.775
1697.2000, -74.604
1697.4000,-210.000
1697.6000,-210.000
1697.8000, -78.124
1698.0000,-210.000
1698.2000,-210.000
1698.4000, -74.847
1698.6000, -85.680
1698.8000,-210.000
1699.0000,-210.000
1699.2000,-210.000
1699.4000, -74.100
1699.6000, -80.697
1699.8000,-210.000
1700.0000, -77.860
