74CSV  	
// AQ6374 OPTICAL SPECTRUM ANALYZER //                  
35
"CTRWL",1125.000000
"SPAN",1150.000000
"START WL", 550.000000
"STOP WL",1700.000000
"WLFREQ", 0
"REFL",-49.0
"LSCL", 5.0
"RESLN",2.000
"AVG",   1
"SMPLAUTO",      1
"SMPL",       2876
"SMPLINTVL",0.4000
"HIGH1"
"MEAS"
"LSUNT",0
"NMSKH","OFF"
"RESCOR",0
"SMOOTH",0
"MEASWL",1
"SWPSPD",0
"MODELNAME","AQ6374"
"CHGPT",         52
"RESCAL0_0",      10019
"RESCAL0_1",      -1240
"RESCAL0_2",    1921719
"RESCAL1_0",      10084
"RESCAL1_1",          0
"RESCAL1_2",          0
"CORESIZE", 0






"[TRACE DATA]"
 550.0000, -69.561
 550.4000, -72.670
 550.8000, -67.779
 551.2000, -70.840
 551.6000, -72.539
 552.0000,-210.000
 552.4000, -69.990
 552.8000,-210.000
 553.2000,-210.000
 553.6000,-210.000
 554.0000, -76.084
 554.4000, -69.154
 554.8000, -79.007
 555.2000,-210.000
 555.6000,-210.000
 556.0000, -70.218
 556.4000,-210.000
 556.8000, -75.956
 557.2000, -70.655
 557.6000,-210.000
 558.0000,-210.000
 558.4000, -69.085
 558.8000, -77.445
 559.2000, -75.116
 559.6000,-210.000
 560.0000, -76.485
 560.4000, -73.514
 560.8000, -70.662
 561.2000,-210.000
 561.6000,-210.000
 562.0000, -69.143
 562.4000,-210.000
 562.8000, -69.756
 563.2000,-210.000
 563.6000, -86.371
 564.0000, -73.177
 564.4000, -71.759
 564.8000,-210.000
 565.2000, -76.887
 565.6000, -84.511
 566.0000, -70.448
 566.4000, -69.211
 566.8000, -71.443
 567.2000, -67.106
 567.6000, -67.187
 568.0000, -74.155
 568.4000, -71.739
 568.8000,-210.000
 569.2000, -68.667
 569.6000,-210.000
 570.0000, -72.555
 570.4000, -69.063
 570.8000, -69.624
 571.2000, -80.125
 571.6000, -76.292
 572.0000, -68.222
 572.4000, -70.292
 572.8000, -72.317
 573.2000, -67.590
 573.6000, -71.034
 574.0000, -70.690
 574.4000, -70.779
 574.8000, -69.847
 575.2000, -70.758
 575.6000, -69.883
 576.0000, -67.602
 576.4000, -69.512
 576.8000, -70.551
 577.2000, -68.984
 577.6000, -69.418
 578.0000, -71.604
 578.4000, -67.228
 578.8000, -68.538
 579.2000, -70.210
 579.6000, -67.072
 580.0000, -68.252
 580.4000, -69.517
 580.8000, -67.637
 581.2000, -68.059
 581.6000, -66.513
 582.0000, -68.226
 582.4000, -66.957
 582.8000, -66.620
 583.2000, -67.057
 583.6000, -66.802
 584.0000, -68.486
 584.4000, -66.632
 584.8000, -67.679
 585.2000, -67.390
 585.6000, -67.746
 586.0000, -66.572
 586.4000, -66.872
 586.8000, -66.098
 587.2000, -65.700
 587.6000, -66.401
 588.0000, -65.727
 588.4000, -67.232
 588.8000, -65.108
 589.2000, -65.619
 589.6000, -64.876
 590.0000, -64.956
 590.4000, -66.402
 590.8000, -67.070
 591.2000, -65.329
 591.6000, -65.361
 592.0000, -65.665
 592.4000, -65.145
 592.8000, -65.540
 593.2000, -64.998
 593.6000, -64.786
 594.0000, -66.120
 594.4000, -65.022
 594.8000, -64.714
 595.2000, -65.590
 595.6000, -64.820
 596.0000, -64.447
 596.4000, -64.598
 596.8000, -64.847
 597.2000, -63.750
 597.6000, -64.305
 598.0000, -64.462
 598.4000, -64.388
 598.8000, -64.604
 599.2000, -64.133
 599.6000, -64.089
 600.0000, -63.843
 600.4000, -63.874
 600.8000, -63.071
 601.2000, -63.350
 601.6000, -63.685
 602.0000, -62.997
 602.4000, -63.658
 602.8000, -63.046
 603.2000, -62.946
 603.6000, -63.533
 604.0000, -63.203
 604.4000, -62.693
 604.8000, -62.840
 605.2000, -62.720
 605.6000, -62.782
 606.0000, -62.544
 606.4000, -62.855
 606.8000, -62.091
 607.2000, -62.066
 607.6000, -62.110
 608.0000, -61.782
 608.4000, -61.683
 608.8000, -61.680
 609.2000, -61.501
 609.6000, -61.740
 610.0000, -61.525
 610.4000, -61.578
 610.8000, -61.487
 611.2000, -61.186
 611.6000, -61.355
 612.0000, -61.014
 612.4000, -61.296
 612.8000, -60.733
 613.2000, -60.356
 613.6000, -60.466
 614.0000, -60.525
 614.4000, -60.213
 614.8000, -60.219
 615.2000, -59.838
 615.6000, -60.022
 616.0000, -60.313
 616.4000, -60.027
 616.8000, -59.701
 617.2000, -59.636
 617.6000, -59.359
 618.0000, -59.329
 618.4000, -59.218
 618.8000, -59.120
 619.2000, -58.854
 619.6000, -58.690
 620.0000, -58.705
 620.4000, -58.553
 620.8000, -58.475
 621.2000, -58.492
 621.6000, -58.285
 622.0000, -58.323
 622.4000, -58.036
 622.8000, -57.889
 623.2000, -57.818
 623.6000, -57.618
 624.0000, -57.569
 624.4000, -57.263
 624.8000, -57.325
 625.2000, -57.178
 625.6000, -57.004
 626.0000, -56.985
 626.4000, -56.851
 626.8000, -56.688
 627.2000, -56.687
 627.6000, -56.470
 628.0000, -56.429
 628.4000, -56.126
 628.8000, -56.112
 629.2000, -55.761
 629.6000, -55.872
 630.0000, -55.858
 630.4000, -55.668
 630.8000, -55.541
 631.2000, -55.429
 631.6000, -55.411
 632.0000, -55.268
 632.4000, -55.255
 632.8000, -55.060
 633.2000, -54.940
 633.6000, -54.940
 634.0000, -54.864
 634.4000, -54.753
 634.8000, -54.583
 635.2000, -54.409
 635.6000, -54.299
 636.0000, -54.241
 636.4000, -54.020
 636.8000, -54.083
 637.2000, -53.985
 637.6000, -53.908
 638.0000, -53.748
 638.4000, -53.675
 638.8000, -53.549
 639.2000, -53.497
 639.6000, -53.375
 640.0000, -53.384
 640.4000, -53.321
 640.8000, -53.211
 641.2000, -53.139
 641.6000, -53.017
 642.0000, -53.023
 642.4000, -52.804
 642.8000, -52.873
 643.2000, -52.683
 643.6000, -52.662
 644.0000, -52.495
 644.4000, -52.535
 644.8000, -52.431
 645.2000, -52.385
 645.6000, -52.261
 646.0000, -52.121
 646.4000, -52.143
 646.8000, -52.053
 647.2000, -51.967
 647.6000, -51.805
 648.0000, -51.844
 648.4000, -51.630
 648.8000, -51.758
 649.2000, -51.580
 649.6000, -51.563
 650.0000, -51.489
 650.4000, -51.409
 650.8000, -51.434
 651.2000, -51.280
 651.6000, -51.260
 652.0000, -51.138
 652.4000, -51.108
 652.8000, -51.004
 653.2000, -51.041
 653.6000, -50.890
 654.0000, -50.889
 654.4000, -50.783
 654.8000, -50.735
 655.2000, -50.669
 655.6000, -50.692
 656.0000, -50.721
 656.4000, -50.506
 656.8000, -50.510
 657.2000, -50.417
 657.6000, -50.493
 658.0000, -50.325
 658.4000, -50.336
 658.8000, -50.142
 659.2000, -50.092
 659.6000, -50.140
 660.0000, -50.024
 660.4000, -49.999
 660.8000, -49.931
 661.2000, -49.947
 661.6000, -49.910
 662.0000, -49.872
 662.4000, -49.795
 662.8000, -49.773
 663.2000, -49.638
 663.6000, -49.774
 664.0000, -49.599
 664.4000, -49.582
 664.8000, -49.579
 665.2000, -49.469
 665.6000, -49.463
 666.0000, -49.478
 666.4000, -49.487
 666.8000, -49.364
 667.2000, -49.289
 667.6000, -49.187
 668.0000, -49.285
 668.4000, -49.153
 668.8000, -49.120
 669.2000, -49.129
 669.6000, -49.119
 670.0000, -49.052
 670.4000, -49.004
 670.8000, -48.919
 671.2000, -48.956
 671.6000, -48.898
 672.0000, -48.845
 672.4000, -48.886
 672.8000, -48.815
 673.2000, -48.749
 673.6000, -48.723
 674.0000, -48.564
 674.4000, -48.755
 674.8000, -48.550
 675.2000, -48.615
 675.6000, -48.520
 676.0000, -48.600
 676.4000, -48.497
 676.8000, -48.621
 677.2000, -48.364
 677.6000, -48.449
 678.0000, -48.455
 678.4000, -48.322
 678.8000, -48.371
 679.2000, -48.383
 679.6000, -48.384
 680.0000, -48.305
 680.4000, -48.288
 680.8000, -48.169
 681.2000, -48.285
 681.6000, -48.126
 682.0000, -48.242
 682.4000, -48.057
 682.8000, -48.187
 683.2000, -48.117
 683.6000, -48.130
 684.0000, -47.983
 684.4000, -47.980
 684.8000, -47.996
 685.2000, -47.996
 685.6000, -47.980
 686.0000, -47.874
 686.4000, -48.005
 686.8000, -47.910
 687.2000, -47.888
 687.6000, -47.825
 688.0000, -47.916
 688.4000, -47.668
 688.8000, -47.886
 689.2000, -47.798
 689.6000, -47.777
 690.0000, -47.723
 690.4000, -47.795
 690.8000, -47.796
 691.2000, -47.620
 691.6000, -47.728
 692.0000, -47.587
 692.4000, -47.721
 692.8000, -47.606
 693.2000, -47.709
 693.6000, -47.695
 694.0000, -47.704
 694.4000, -47.620
 694.8000, -47.579
 695.2000, -47.674
 695.6000, -47.609
 696.0000, -47.607
 696.4000, -47.519
 696.8000, -47.641
 697.2000, -47.604
 697.6000, -47.548
 698.0000, -47.507
 698.4000, -47.646
 698.8000, -47.607
 699.2000, -47.511
 699.6000, -47.514
 700.0000, -47.414
 700.4000, -47.581
 700.8000, -47.454
 701.2000, -47.620
 701.6000, -47.488
 702.0000, -47.522
 702.4000, -47.493
 702.8000, -47.513
 703.2000, -47.440
 703.6000, -47.444
 704.0000, -47.396
 704.4000, -47.374
 704.8000, -47.493
 705.2000, -47.370
 705.6000, -47.521
 706.0000, -47.312
 706.4000, -47.539
 706.8000, -47.401
 707.2000, -47.532
 707.6000, -47.452
 708.0000, -47.491
 708.4000, -47.536
 708.8000, -47.481
 709.2000, -47.548
 709.6000, -47.480
 710.0000, -47.595
 710.4000, -47.458
 710.8000, -47.627
 711.2000, -47.530
 711.6000, -47.598
 712.0000, -47.426
 712.4000, -47.568
 712.8000, -47.554
 713.2000, -47.561
 713.6000, -47.609
 714.0000, -47.478
 714.4000, -47.608
 714.8000, -47.542
 715.2000, -47.588
 715.6000, -47.634
 716.0000, -47.662
 716.4000, -47.562
 716.8000, -47.610
 717.2000, -47.659
 717.6000, -47.553
 718.0000, -47.636
 718.4000, -47.624
 718.8000, -47.697
 719.2000, -47.654
 719.6000, -47.654
 720.0000, -47.582
 720.4000, -47.677
 720.8000, -47.653
 721.2000, -47.736
 721.6000, -47.675
 722.0000, -47.656
 722.4000, -47.707
 722.8000, -47.672
 723.2000, -47.798
 723.6000, -47.683
 724.0000, -47.792
 724.4000, -47.676
 724.8000, -47.869
 725.2000, -47.711
 725.6000, -47.761
 726.0000, -47.776
 726.4000, -47.762
 726.8000, -47.841
 727.2000, -47.749
 727.6000, -47.900
 728.0000, -47.799
 728.4000, -47.801
 728.8000, -47.834
 729.2000, -47.793
 729.6000, -47.822
 730.0000, -47.803
 730.4000, -47.761
 730.8000, -47.840
 731.2000, -47.996
 731.6000, -47.839
 732.0000, -47.952
 732.4000, -47.877
 732.8000, -47.945
 733.2000, -47.816
 733.6000, -47.942
 734.0000, -47.893
 734.4000, -47.935
 734.8000, -47.914
 735.2000, -47.916
 735.6000, -48.003
 736.0000, -47.895
 736.4000, -47.967
 736.8000, -47.966
 737.2000, -48.021
 737.6000, -47.939
 738.0000, -47.967
 738.4000, -48.055
 738.8000, -47.975
 739.2000, -48.004
 739.6000, -47.929
 740.0000, -48.016
 740.4000, -48.068
 740.8000, -48.028
 741.2000, -48.013
 741.6000, -47.999
 742.0000, -47.937
 742.4000, -48.085
 742.8000, -48.046
 743.2000, -48.075
 743.6000, -48.047
 744.0000, -48.078
 744.4000, -48.020
 744.8000, -48.062
 745.2000, -48.131
 745.6000, -48.081
 746.0000, -48.104
 746.4000, -48.114
 746.8000, -48.123
 747.2000, -48.127
 747.6000, -48.193
 748.0000, -48.255
 748.4000, -48.231
 748.8000, -48.133
 749.2000, -48.147
 749.6000, -48.213
 750.0000, -48.101
 750.4000, -48.187
 750.8000, -48.126
 751.2000, -48.162
 751.6000, -48.236
 752.0000, -48.229
 752.4000, -48.214
 752.8000, -48.214
 753.2000, -48.256
 753.6000, -48.290
 754.0000, -48.273
 754.4000, -48.229
 754.8000, -48.314
 755.2000, -48.261
 755.6000, -48.239
 756.0000, -48.230
 756.4000, -48.296
 756.8000, -48.352
 757.2000, -48.287
 757.6000, -48.317
 758.0000, -48.315
 758.4000, -48.379
 758.8000, -48.317
 759.2000, -48.342
 759.6000, -48.267
 760.0000, -48.363
 760.4000, -48.442
 760.8000, -48.413
 761.2000, -48.513
 761.6000, -48.463
 762.0000, -48.410
 762.4000, -48.309
 762.8000, -48.494
 763.2000, -48.393
 763.6000, -48.505
 764.0000, -48.474
 764.4000, -48.435
 764.8000, -48.497
 765.2000, -48.497
 765.6000, -48.613
 766.0000, -48.500
 766.4000, -48.638
 766.8000, -48.525
 767.2000, -48.498
 767.6000, -48.565
 768.0000, -48.550
 768.4000, -48.606
 768.8000, -48.579
 769.2000, -48.600
 769.6000, -48.667
 770.0000, -48.723
 770.4000, -48.598
 770.8000, -48.718
 771.2000, -48.609
 771.6000, -48.662
 772.0000, -48.746
 772.4000, -48.687
 772.8000, -48.743
 773.2000, -48.770
 773.6000, -48.808
 774.0000, -48.740
 774.4000, -48.789
 774.8000, -48.799
 775.2000, -48.863
 775.6000, -48.724
 776.0000, -48.856
 776.4000, -48.827
 776.8000, -48.869
 777.2000, -48.859
 777.6000, -48.857
 778.0000, -48.939
 778.4000, -48.824
 778.8000, -48.978
 779.2000, -48.978
 779.6000, -48.915
 780.0000, -48.995
 780.4000, -49.002
 780.8000, -48.923
 781.2000, -49.068
 781.6000, -49.219
 782.0000, -49.043
 782.4000, -49.105
 782.8000, -49.067
 783.2000, -49.092
 783.6000, -49.164
 784.0000, -49.161
 784.4000, -49.221
 784.8000, -49.185
 785.2000, -49.256
 785.6000, -49.192
 786.0000, -49.263
 786.4000, -49.210
 786.8000, -49.258
 787.2000, -49.216
 787.6000, -49.287
 788.0000, -49.328
 788.4000, -49.384
 788.8000, -49.432
 789.2000, -49.406
 789.6000, -49.415
 790.0000, -49.497
 790.4000, -49.528
 790.8000, -49.578
 791.2000, -49.577
 791.6000, -49.425
 792.0000, -49.584
 792.4000, -49.610
 792.8000, -49.551
 793.2000, -49.656
 793.6000, -49.701
 794.0000, -49.627
 794.4000, -49.674
 794.8000, -49.741
 795.2000, -49.692
 795.6000, -49.808
 796.0000, -49.703
 796.4000, -49.913
 796.8000, -49.836
 797.2000, -49.806
 797.6000, -49.837
 798.0000, -49.873
 798.4000, -49.864
 798.8000, -49.849
 799.2000, -49.914
 799.6000, -49.882
 800.0000, -49.943
 800.4000, -49.915
 800.8000, -50.100
 801.2000, -50.007
 801.6000, -50.095
 802.0000, -50.196
 802.4000, -50.082
 802.8000, -50.171
 803.2000, -50.137
 803.6000, -50.179
 804.0000, -50.200
 804.4000, -50.168
 804.8000, -50.312
 805.2000, -50.273
 805.6000, -50.248
 806.0000, -50.346
 806.4000, -50.313
 806.8000, -50.441
 807.2000, -50.361
 807.6000, -50.306
 808.0000, -50.305
 808.4000, -50.332
 808.8000, -50.420
 809.2000, -50.441
 809.6000, -50.425
 810.0000, -50.480
 810.4000, -50.507
 810.8000, -50.651
 811.2000, -50.589
 811.6000, -50.592
 812.0000, -50.613
 812.4000, -50.653
 812.8000, -50.764
 813.2000, -50.659
 813.6000, -50.879
 814.0000, -50.710
 814.4000, -50.798
 814.8000, -50.708
 815.2000, -50.788
 815.6000, -50.835
 816.0000, -50.859
 816.4000, -50.870
 816.8000, -50.951
 817.2000, -50.964
 817.6000, -50.915
 818.0000, -50.955
 818.4000, -50.970
 818.8000, -51.018
 819.2000, -50.902
 819.6000, -51.142
 820.0000, -50.943
 820.4000, -51.178
 820.8000, -51.024
 821.2000, -51.268
 821.6000, -51.185
 822.0000, -51.277
 822.4000, -51.322
 822.8000, -51.126
 823.2000, -51.383
 823.6000, -51.082
 824.0000, -51.484
 824.4000, -51.270
 824.8000, -51.361
 825.2000, -51.454
 825.6000, -51.204
 826.0000, -51.419
 826.4000, -51.259
 826.8000, -51.466
 827.2000, -51.466
 827.6000, -51.391
 828.0000, -51.690
 828.4000, -51.344
 828.8000, -51.623
 829.2000, -51.577
 829.6000, -51.437
 830.0000, -51.737
 830.4000, -51.502
 830.8000, -51.628
 831.2000, -51.656
 831.6000, -51.614
 832.0000, -51.618
 832.4000, -51.742
 832.8000, -51.641
 833.2000, -51.778
 833.6000, -51.703
 834.0000, -51.766
 834.4000, -51.903
 834.8000, -51.838
 835.2000, -51.767
 835.6000, -51.772
 836.0000, -51.893
 836.4000, -51.794
 836.8000, -51.875
 837.2000, -51.999
 837.6000, -51.818
 838.0000, -51.853
 838.4000, -52.136
 838.8000, -52.064
 839.2000, -51.888
 839.6000, -52.189
 840.0000, -52.120
 840.4000, -51.876
 840.8000, -52.243
 841.2000, -52.258
 841.6000, -51.899
 842.0000, -52.212
 842.4000, -52.368
 842.8000, -52.061
 843.2000, -52.023
 843.6000, -52.540
 844.0000, -52.290
 844.4000, -52.036
 844.8000, -52.295
 845.2000, -52.563
 845.6000, -52.098
 846.0000, -52.144
 846.4000, -52.638
 846.8000, -52.488
 847.2000, -52.050
 847.6000, -52.406
 848.0000, -52.827
 848.4000, -52.466
 848.8000, -52.094
 849.2000, -52.611
 849.6000, -52.909
 850.0000, -52.356
 850.4000, -52.068
 850.8000, -52.677
 851.2000, -52.936
 851.6000, -52.518
 852.0000, -52.153
 852.4000, -52.647
 852.8000, -52.957
 853.2000, -52.641
 853.6000, -52.363
 854.0000, -52.608
 854.4000, -53.019
 854.8000, -52.993
 855.2000, -52.444
 855.6000, -52.624
 856.0000, -52.860
 856.4000, -53.002
 856.8000, -52.716
 857.2000, -52.612
 857.6000, -52.805
 858.0000, -53.055
 858.4000, -52.924
 858.8000, -52.692
 859.2000, -52.710
 859.6000, -52.993
 860.0000, -53.038
 860.4000, -53.154
 860.8000, -52.946
 861.2000, -52.792
 861.6000, -53.003
 862.0000, -53.062
 862.4000, -53.187
 862.8000, -53.041
 863.2000, -52.954
 863.6000, -53.010
 864.0000, -53.122
 864.4000, -52.995
 864.8000, -53.095
 865.2000, -53.158
 865.6000, -53.122
 866.0000, -53.179
 866.4000, -53.154
 866.8000, -53.119
 867.2000, -53.243
 867.6000, -53.262
 868.0000, -53.347
 868.4000, -53.227
 868.8000, -53.201
 869.2000, -53.115
 869.6000, -53.166
 870.0000, -53.379
 870.4000, -53.415
 870.8000, -53.423
 871.2000, -53.321
 871.6000, -53.271
 872.0000, -53.276
 872.4000, -53.319
 872.8000, -53.439
 873.2000, -53.466
 873.6000, -53.418
 874.0000, -53.374
 874.4000, -53.379
 874.8000, -53.310
 875.2000, -53.319
 875.6000, -53.398
 876.0000, -53.470
 876.4000, -53.551
 876.8000, -53.544
 877.2000, -53.522
 877.6000, -53.548
 878.0000, -53.476
 878.4000, -53.466
 878.8000, -53.370
 879.2000, -53.501
 879.6000, -53.577
 880.0000, -53.592
 880.4000, -53.805
 880.8000, -53.779
 881.2000, -53.934
 881.6000, -53.781
 882.0000, -53.735
 882.4000, -53.592
 882.8000, -53.538
 883.2000, -53.507
 883.6000, -53.512
 884.0000, -53.574
 884.4000, -53.738
 884.8000, -54.145
 885.2000, -54.324
 885.6000, -54.397
 886.0000, -54.185
 886.4000, -53.845
 886.8000, -53.591
 887.2000, -53.420
 887.6000, -53.309
 888.0000, -53.169
 888.4000, -53.388
 888.8000, -53.590
 889.2000, -53.880
 889.6000, -54.411
 890.0000, -54.642
 890.4000, -55.073
 890.8000, -55.134
 891.2000, -54.890
 891.6000, -54.562
 892.0000, -54.196
 892.4000, -53.650
 892.8000, -53.473
 893.2000, -52.978
 893.6000, -52.960
 894.0000, -52.831
 894.4000, -53.051
 894.8000, -53.293
 895.2000, -53.696
 895.6000, -54.081
 896.0000, -54.597
 896.4000, -55.059
 896.8000, -55.569
 897.2000, -55.972
 897.6000, -56.340
 898.0000, -56.417
 898.4000, -56.130
 898.8000, -55.776
 899.2000, -55.391
 899.6000, -54.964
 900.0000, -54.320
 900.4000, -53.958
 900.8000, -53.658
 901.2000, -53.296
 901.6000, -53.002
 902.0000, -52.687
 902.4000, -52.633
 902.8000, -52.519
 903.2000, -52.503
 903.6000, -52.594
 904.0000, -52.601
 904.4000, -52.533
 904.8000, -52.887
 905.2000, -52.995
 905.6000, -53.113
 906.0000, -53.256
 906.4000, -53.483
 906.8000, -53.725
 907.2000, -53.915
 907.6000, -54.086
 908.0000, -54.513
 908.4000, -54.656
 908.8000, -54.967
 909.2000, -55.136
 909.6000, -55.399
 910.0000, -55.371
 910.4000, -55.747
 910.8000, -55.919
 911.2000, -56.137
 911.6000, -56.014
 912.0000, -56.164
 912.4000, -56.402
 912.8000, -56.424
 913.2000, -56.412
 913.6000, -56.331
 914.0000, -56.410
 914.4000, -56.298
 914.8000, -56.315
 915.2000, -56.021
 915.6000, -56.041
 916.0000, -55.829
 916.4000, -55.654
 916.8000, -55.492
 917.2000, -55.470
 917.6000, -55.091
 918.0000, -54.935
 918.4000, -54.611
 918.8000, -54.452
 919.2000, -54.240
 919.6000, -53.989
 920.0000, -53.741
 920.4000, -53.534
 920.8000, -53.382
 921.2000, -53.075
 921.6000, -53.036
 922.0000, -52.900
 922.4000, -52.751
 922.8000, -52.724
 923.2000, -52.670
 923.6000, -52.681
 924.0000, -52.720
 924.4000, -52.785
 924.8000, -52.983
 925.2000, -53.309
 925.6000, -53.605
 926.0000, -53.938
 926.4000, -54.429
 926.8000, -54.883
 927.2000, -55.592
 927.6000, -56.090
 928.0000, -56.816
 928.4000, -57.595
 928.8000, -58.471
 929.2000, -58.826
 929.6000, -58.933
 930.0000, -58.744
 930.4000, -58.392
 930.8000, -57.661
 931.2000, -56.808
 931.6000, -56.047
 932.0000, -55.431
 932.4000, -54.833
 932.8000, -54.165
 933.2000, -53.922
 933.6000, -53.658
 934.0000, -53.514
 934.4000, -53.657
 934.8000, -53.753
 935.2000, -54.049
 935.6000, -54.411
 936.0000, -55.015
 936.4000, -55.529
 936.8000, -56.411
 937.2000, -56.988
 937.6000, -57.562
 938.0000, -57.962
 938.4000, -57.679
 938.8000, -57.290
 939.2000, -56.740
 939.6000, -56.161
 940.0000, -55.541
 940.4000, -54.814
 940.8000, -54.582
 941.2000, -54.434
 941.6000, -54.359
 942.0000, -54.511
 942.4000, -54.835
 942.8000, -55.346
 943.2000, -55.675
 943.6000, -56.403
 944.0000, -56.789
 944.4000, -57.271
 944.8000, -57.086
 945.2000, -57.035
 945.6000, -56.510
 946.0000, -56.057
 946.4000, -55.726
 946.8000, -55.317
 947.2000, -55.101
 947.6000, -55.194
 948.0000, -55.216
 948.4000, -55.421
 948.8000, -55.896
 949.2000, -56.300
 949.6000, -56.462
 950.0000, -56.605
 950.4000, -56.658
 950.8000, -56.518
 951.2000, -56.277
 951.6000, -56.141
 952.0000, -56.038
 952.4000, -55.921
 952.8000, -55.819
 953.2000, -55.933
 953.6000, -56.084
 954.0000, -56.181
 954.4000, -56.231
 954.8000, -56.310
 955.2000, -56.307
 955.6000, -56.339
 956.0000, -56.333
 956.4000, -56.412
 956.8000, -56.502
 957.2000, -56.435
 957.6000, -56.630
 958.0000, -56.464
 958.4000, -56.623
 958.8000, -56.487
 959.2000, -56.199
 959.6000, -56.052
 960.0000, -56.058
 960.4000, -56.112
 960.8000, -56.230
 961.2000, -56.502
 961.6000, -56.831
 962.0000, -57.059
 962.4000, -56.965
 962.8000, -56.998
 963.2000, -56.649
 963.6000, -56.164
 964.0000, -55.967
 964.4000, -55.884
 964.8000, -55.977
 965.2000, -56.281
 965.6000, -56.834
 966.0000, -57.217
 966.4000, -57.700
 966.8000, -57.603
 967.2000, -57.192
 967.6000, -56.475
 968.0000, -56.245
 968.4000, -55.779
 968.8000, -55.887
 969.2000, -56.276
 969.6000, -56.884
 970.0000, -57.644
 970.4000, -58.413
 970.8000, -58.283
 971.2000, -57.673
 971.6000, -56.982
 972.0000, -56.322
 972.4000, -56.055
 972.8000, -56.166
 973.2000, -56.612
 973.6000, -57.379
 974.0000, -58.290
 974.4000, -59.015
 974.8000, -58.734
 975.2000, -58.153
 975.6000, -57.136
 976.0000, -56.601
 976.4000, -56.298
 976.8000, -56.621
 977.2000, -57.452
 977.6000, -58.556
 978.0000, -59.419
 978.4000, -59.685
 978.8000, -58.892
 979.2000, -57.818
 979.6000, -57.026
 980.0000, -56.605
 980.4000, -56.835
 980.8000, -57.546
 981.2000, -58.653
 981.6000, -59.701
 982.0000, -59.890
 982.4000, -58.876
 982.8000, -57.887
 983.2000, -56.894
 983.6000, -56.587
 984.0000, -56.673
 984.4000, -57.515
 984.8000, -58.665
 985.2000, -59.693
 985.6000, -59.653
 986.0000, -58.636
 986.4000, -57.483
 986.8000, -56.607
 987.2000, -56.424
 987.6000, -56.766
 988.0000, -57.798
 988.4000, -58.970
 988.8000, -59.822
 989.2000, -59.231
 989.6000, -58.173
 990.0000, -56.939
 990.4000, -56.460
 990.8000, -56.573
 991.2000, -56.958
 991.6000, -58.151
 992.0000, -59.401
 992.4000, -59.660
 992.8000, -58.877
 993.2000, -57.569
 993.6000, -56.662
 994.0000, -56.397
 994.4000, -56.925
 994.8000, -57.740
 995.2000, -59.196
 995.6000, -59.743
 996.0000, -59.267
 996.4000, -58.173
 996.8000, -57.278
 997.2000, -56.903
 997.6000, -57.146
 998.0000, -57.857
 998.4000, -58.927
 998.8000, -59.863
 999.2000, -59.836
 999.6000, -58.881
1000.0000, -57.759
1000.4000, -57.236
1000.8000, -57.329
1001.2000, -57.941
1001.6000, -59.054
1002.0000, -59.842
1002.4000, -59.735
1002.8000, -58.855
1003.2000, -57.883
1003.6000, -57.176
1004.0000, -57.337
1004.4000, -57.967
1004.8000, -58.993
1005.2000, -59.746
1005.6000, -59.857
1006.0000, -59.095
1006.4000, -58.225
1006.8000, -57.844
1007.2000, -57.855
1007.6000, -58.511
1008.0000, -59.482
1008.4000, -60.076
1008.8000, -60.253
1009.2000, -59.687
1009.6000, -58.961
1010.0000, -58.730
1010.4000, -58.928
1010.8000, -59.516
1011.2000, -60.305
1011.6000, -60.794
1012.0000, -60.682
1012.4000, -60.039
1012.8000, -59.441
1013.2000, -59.197
1013.6000, -59.315
1014.0000, -59.825
1014.4000, -60.276
1014.8000, -60.592
1015.2000, -60.212
1015.6000, -59.557
1016.0000, -59.106
1016.4000, -58.926
1016.8000, -59.105
1017.2000, -59.552
1017.6000, -59.792
1018.0000, -59.734
1018.4000, -59.429
1018.8000, -58.900
1019.2000, -58.571
1019.6000, -58.485
1020.0000, -58.655
1020.4000, -58.854
1020.8000, -59.079
1021.2000, -58.911
1021.6000, -58.459
1022.0000, -58.162
1022.4000, -57.832
1022.8000, -57.875
1023.2000, -58.039
1023.6000, -58.163
1024.0000, -58.189
1024.4000, -57.905
1024.8000, -57.733
1025.2000, -57.511
1025.6000, -57.345
1026.0000, -57.329
1026.4000, -57.323
1026.8000, -57.297
1027.2000, -57.352
1027.6000, -57.248
1028.0000, -57.041
1028.4000, -56.989
1028.8000, -56.840
1029.2000, -56.691
1029.6000, -56.680
1030.0000, -56.542
1030.4000, -56.473
1030.8000, -56.632
1031.2000, -56.617
1031.6000, -56.663
1032.0000, -56.487
1032.4000, -56.262
1032.8000, -56.085
1033.2000, -56.120
1033.6000, -56.241
1034.0000, -56.309
1034.4000, -56.417
1034.8000, -56.460
1035.2000, -55.945
1035.6000, -55.689
1036.0000, -55.560
1036.4000, -55.637
1036.8000, -55.862
1037.2000, -56.108
1037.6000, -56.316
1038.0000, -56.029
1038.4000, -55.639
1038.8000, -55.408
1039.2000, -55.311
1039.6000, -55.609
1040.0000, -56.151
1040.4000, -56.485
1040.8000, -56.493
1041.2000, -56.145
1041.6000, -55.509
1042.0000, -55.346
1042.4000, -55.425
1042.8000, -55.942
1043.2000, -56.606
1043.6000, -56.945
1044.0000, -56.410
1044.4000, -55.847
1044.8000, -55.250
1045.2000, -55.304
1045.6000, -55.480
1046.0000, -56.136
1046.4000, -56.566
1046.8000, -56.300
1047.2000, -55.257
1047.6000, -54.314
1048.0000, -53.820
1048.4000, -53.814
1048.8000, -54.171
1049.2000, -54.619
1049.6000, -54.486
1050.0000, -53.763
1050.4000, -52.784
1050.8000, -52.024
1051.2000, -51.796
1051.6000, -52.418
1052.0000, -53.371
1052.4000, -54.237
1052.8000, -54.825
1053.2000, -54.643
1053.6000, -53.855
1054.0000, -53.551
1054.4000, -53.494
1054.8000, -54.186
1055.2000, -55.480
1055.6000, -56.399
1056.0000, -56.376
1056.4000, -55.699
1056.8000, -54.725
1057.2000, -54.459
1057.6000, -54.833
1058.0000, -55.732
1058.4000, -56.463
1058.8000, -56.542
1059.2000, -55.540
1059.6000, -54.418
1060.0000, -53.537
1060.4000, -53.310
1060.8000, -53.639
1061.2000, -54.277
1061.6000, -54.688
1062.0000, -54.089
1062.4000, -52.895
1062.8000, -51.594
1063.2000, -37.624
1063.6000, -34.476
1064.0000, -34.147
1064.4000, -34.114
1064.8000, -34.200
1065.2000, -34.466
1065.6000, -40.968
1066.0000, -52.030
1066.4000, -51.789
1066.8000, -51.846
1067.2000, -52.852
1067.6000, -53.936
1068.0000, -54.503
1068.4000, -53.941
1068.8000, -53.199
1069.2000, -52.712
1069.6000, -52.753
1070.0000, -53.561
1070.4000, -54.516
1070.8000, -55.506
1071.2000, -55.424
1071.6000, -54.162
1072.0000, -53.302
1072.4000, -52.767
1072.8000, -52.678
1073.2000, -53.384
1073.6000, -54.464
1074.0000, -54.748
1074.4000, -53.881
1074.8000, -52.482
1075.2000, -51.183
1075.6000, -50.770
1076.0000, -50.934
1076.4000, -51.821
1076.8000, -52.424
1077.2000, -52.410
1077.6000, -51.515
1078.0000, -50.311
1078.4000, -49.439
1078.8000, -49.366
1079.2000, -49.801
1079.6000, -50.720
1080.0000, -51.735
1080.4000, -52.164
1080.8000, -51.625
1081.2000, -50.490
1081.6000, -49.989
1082.0000, -50.084
1082.4000, -50.346
1082.8000, -51.550
1083.2000, -52.569
1083.6000, -53.110
1084.0000, -52.554
1084.4000, -51.802
1084.8000, -51.470
1085.2000, -51.183
1085.6000, -51.691
1086.0000, -52.632
1086.4000, -53.585
1086.8000, -53.879
1087.2000, -53.577
1087.6000, -52.892
1088.0000, -52.261
1088.4000, -52.132
1088.8000, -52.282
1089.2000, -52.783
1089.6000, -53.467
1090.0000, -53.829
1090.4000, -53.347
1090.8000, -52.804
1091.2000, -52.059
1091.6000, -51.997
1092.0000, -52.223
1092.4000, -52.639
1092.8000, -53.046
1093.2000, -53.093
1093.6000, -52.877
1094.0000, -52.127
1094.4000, -51.719
1094.8000, -51.743
1095.2000, -51.852
1095.6000, -52.038
1096.0000, -52.290
1096.4000, -52.402
1096.8000, -52.097
1097.2000, -51.827
1097.6000, -51.371
1098.0000, -51.464
1098.4000, -51.546
1098.8000, -51.749
1099.2000, -51.907
1099.6000, -51.974
1100.0000, -51.872
1100.4000, -51.420
1100.8000, -51.319
1101.2000, -51.326
1101.6000, -51.468
1102.0000, -51.763
1102.4000, -51.782
1102.8000, -51.696
1103.2000, -51.637
1103.6000, -51.473
1104.0000, -51.385
1104.4000, -51.592
1104.8000, -51.769
1105.2000, -51.958
1105.6000, -51.929
1106.0000, -51.770
1106.4000, -51.437
1106.8000, -51.262
1107.2000, -51.079
1107.6000, -51.217
1108.0000, -51.598
1108.4000, -51.818
1108.8000, -52.101
1109.2000, -51.792
1109.6000, -51.380
1110.0000, -50.922
1110.4000, -50.581
1110.8000, -50.598
1111.2000, -50.885
1111.6000, -51.518
1112.0000, -52.021
1112.4000, -52.093
1112.8000, -51.645
1113.2000, -50.976
1113.6000, -50.485
1114.0000, -50.290
1114.4000, -50.313
1114.8000, -50.827
1115.2000, -51.692
1115.6000, -52.192
1116.0000, -52.292
1116.4000, -51.736
1116.8000, -50.964
1117.2000, -50.281
1117.6000, -50.029
1118.0000, -50.342
1118.4000, -50.877
1118.8000, -51.917
1119.2000, -52.843
1119.6000, -52.774
1120.0000, -52.168
1120.4000, -51.104
1120.8000, -50.368
1121.2000, -50.087
1121.6000, -50.225
1122.0000, -51.049
1122.4000, -52.001
1122.8000, -52.995
1123.2000, -53.387
1123.6000, -52.687
1124.0000, -51.662
1124.4000, -50.802
1124.8000, -50.384
1125.2000, -50.491
1125.6000, -51.125
1126.0000, -52.420
1126.4000, -53.632
1126.8000, -54.461
1127.2000, -54.016
1127.6000, -52.951
1128.0000, -51.541
1128.4000, -50.927
1128.8000, -50.709
1129.2000, -51.050
1129.6000, -52.028
1130.0000, -53.415
1130.4000, -54.863
1130.8000, -55.102
1131.2000, -54.097
1131.6000, -52.816
1132.0000, -51.585
1132.4000, -51.032
1132.8000, -51.064
1133.2000, -51.600
1133.6000, -52.734
1134.0000, -54.245
1134.4000, -55.616
1134.8000, -55.514
1135.2000, -54.446
1135.6000, -52.922
1136.0000, -51.854
1136.4000, -51.323
1136.8000, -51.346
1137.2000, -51.861
1137.6000, -53.038
1138.0000, -54.604
1138.4000, -55.987
1138.8000, -56.003
1139.2000, -54.852
1139.6000, -53.320
1140.0000, -52.211
1140.4000, -51.563
1140.8000, -51.638
1141.2000, -52.242
1141.6000, -53.252
1142.0000, -54.691
1142.4000, -55.993
1142.8000, -56.438
1143.2000, -55.455
1143.6000, -54.172
1144.0000, -52.914
1144.4000, -52.094
1144.8000, -51.855
1145.2000, -52.227
1145.6000, -52.934
1146.0000, -54.212
1146.4000, -55.547
1146.8000, -56.498
1147.2000, -56.110
1147.6000, -54.922
1148.0000, -53.697
1148.4000, -52.792
1148.8000, -52.362
1149.2000, -52.294
1149.6000, -52.776
1150.0000, -53.627
1150.4000, -54.881
1150.8000, -55.968
1151.2000, -56.452
1151.6000, -55.862
1152.0000, -54.961
1152.4000, -53.772
1152.8000, -53.013
1153.2000, -52.587
1153.6000, -52.629
1154.0000, -53.029
1154.4000, -53.883
1154.8000, -54.743
1155.2000, -55.652
1155.6000, -56.026
1156.0000, -55.716
1156.4000, -55.017
1156.8000, -54.076
1157.2000, -53.428
1157.6000, -53.021
1158.0000, -53.026
1158.4000, -53.122
1158.8000, -53.615
1159.2000, -54.337
1159.6000, -55.082
1160.0000, -55.496
1160.4000, -55.482
1160.8000, -55.120
1161.2000, -54.588
1161.6000, -53.940
1162.0000, -53.484
1162.4000, -53.237
1162.8000, -53.356
1163.2000, -53.645
1163.6000, -53.943
1164.0000, -54.501
1164.4000, -54.724
1164.8000, -54.957
1165.2000, -54.895
1165.6000, -54.673
1166.0000, -54.350
1166.4000, -54.064
1166.8000, -53.829
1167.2000, -53.818
1167.6000, -53.868
1168.0000, -53.924
1168.4000, -54.241
1168.8000, -54.351
1169.2000, -54.474
1169.6000, -54.645
1170.0000, -54.588
1170.4000, -54.701
1170.8000, -54.451
1171.2000, -54.548
1171.6000, -54.483
1172.0000, -54.509
1172.4000, -54.541
1172.8000, -54.617
1173.2000, -54.661
1173.6000, -54.621
1174.0000, -54.425
1174.4000, -54.403
1174.8000, -54.337
1175.2000, -54.303
1175.6000, -54.399
1176.0000, -54.799
1176.4000, -54.826
1176.8000, -55.175
1177.2000, -55.453
1177.6000, -55.590
1178.0000, -55.591
1178.4000, -55.363
1178.8000, -55.114
1179.2000, -54.711
1179.6000, -54.347
1180.0000, -54.141
1180.4000, -54.216
1180.8000, -54.309
1181.2000, -54.510
1181.6000, -55.102
1182.0000, -55.635
1182.4000, -56.216
1182.8000, -56.643
1183.2000, -56.652
1183.6000, -56.344
1184.0000, -55.843
1184.4000, -55.290
1184.8000, -54.549
1185.2000, -54.253
1185.6000, -54.032
1186.0000, -53.999
1186.4000, -54.137
1186.8000, -54.548
1187.2000, -55.354
1187.6000, -56.170
1188.0000, -57.311
1188.4000, -57.676
1188.8000, -58.000
1189.2000, -57.773
1189.6000, -56.957
1190.0000, -56.050
1190.4000, -55.165
1190.8000, -54.596
1191.2000, -54.124
1191.6000, -53.885
1192.0000, -53.979
1192.4000, -54.373
1192.8000, -54.856
1193.2000, -55.813
1193.6000, -56.930
1194.0000, -58.460
1194.4000, -59.251
1194.8000, -59.632
1195.2000, -59.054
1195.6000, -58.010
1196.0000, -56.898
1196.4000, -55.886
1196.8000, -54.952
1197.2000, -54.425
1197.6000, -54.071
1198.0000, -54.073
1198.4000, -54.219
1198.8000, -54.635
1199.2000, -55.384
1199.6000, -56.210
1200.0000, -57.801
1200.4000, -59.105
1200.8000, -60.355
1201.2000, -60.948
1201.6000, -60.251
1202.0000, -59.082
1202.4000, -57.675
1202.8000, -56.424
1203.2000, -55.554
1203.6000, -54.739
1204.0000, -54.446
1204.4000, -54.302
1204.8000, -54.205
1205.2000, -54.520
1205.6000, -55.167
1206.0000, -55.949
1206.4000, -56.947
1206.8000, -58.256
1207.2000, -59.803
1207.6000, -61.252
1208.0000, -61.898
1208.4000, -61.494
1208.8000, -60.306
1209.2000, -58.896
1209.6000, -57.592
1210.0000, -56.404
1210.4000, -55.560
1210.8000, -54.983
1211.2000, -54.684
1211.6000, -54.589
1212.0000, -54.614
1212.4000, -54.877
1212.8000, -55.402
1213.2000, -56.042
1213.6000, -56.978
1214.0000, -58.190
1214.4000, -59.444
1214.8000, -60.698
1215.2000, -61.782
1215.6000, -62.093
1216.0000, -61.541
1216.4000, -60.362
1216.8000, -59.087
1217.2000, -57.780
1217.6000, -56.978
1218.0000, -56.232
1218.4000, -55.551
1218.8000, -55.188
1219.2000, -55.158
1219.6000, -55.073
1220.0000, -55.251
1220.4000, -55.436
1220.8000, -55.958
1221.2000, -56.578
1221.6000, -57.314
1222.0000, -58.090
1222.4000, -59.110
1222.8000, -59.897
1223.2000, -60.697
1223.6000, -61.281
1224.0000, -61.243
1224.4000, -60.887
1224.8000, -60.113
1225.2000, -59.206
1225.6000, -58.398
1226.0000, -57.570
1226.4000, -57.010
1226.8000, -56.619
1227.2000, -56.081
1227.6000, -56.076
1228.0000, -55.844
1228.4000, -55.945
1228.8000, -56.022
1229.2000, -56.291
1229.6000, -56.587
1230.0000, -57.088
1230.4000, -57.347
1230.8000, -57.865
1231.2000, -58.469
1231.6000, -59.065
1232.0000, -59.308
1232.4000, -59.811
1232.8000, -60.029
1233.2000, -60.110
1233.6000, -59.934
1234.0000, -59.575
1234.4000, -59.336
1234.8000, -58.957
1235.2000, -58.451
1235.6000, -58.070
1236.0000, -57.952
1236.4000, -57.638
1236.8000, -57.520
1237.2000, -57.468
1237.6000, -57.207
1238.0000, -57.201
1238.4000, -57.279
1238.8000, -57.489
1239.2000, -57.466
1239.6000, -57.477
1240.0000, -57.831
1240.4000, -57.991
1240.8000, -58.206
1241.2000, -58.261
1241.6000, -58.515
1242.0000, -58.616
1242.4000, -58.785
1242.8000, -58.925
1243.2000, -58.919
1243.6000, -58.894
1244.0000, -58.892
1244.4000, -58.769
1244.8000, -58.835
1245.2000, -58.677
1245.6000, -58.752
1246.0000, -58.679
1246.4000, -58.786
1246.8000, -58.675
1247.2000, -58.764
1247.6000, -58.808
1248.0000, -58.812
1248.4000, -59.023
1248.8000, -59.029
1249.2000, -59.208
1249.6000, -59.290
1250.0000, -59.419
1250.4000, -59.462
1250.8000, -59.707
1251.2000, -59.753
1251.6000, -59.840
1252.0000, -59.883
1252.4000, -59.905
1252.8000, -59.747
1253.2000, -59.687
1253.6000, -59.381
1254.0000, -59.355
1254.4000, -59.219
1254.8000, -59.003
1255.2000, -59.029
1255.6000, -58.683
1256.0000, -58.594
1256.4000, -58.467
1256.8000, -58.284
1257.2000, -58.118
1257.6000, -58.078
1258.0000, -57.978
1258.4000, -57.987
1258.8000, -57.887
1259.2000, -57.871
1259.6000, -57.838
1260.0000, -57.912
1260.4000, -58.004
1260.8000, -58.117
1261.2000, -58.307
1261.6000, -58.508
1262.0000, -58.703
1262.4000, -58.934
1262.8000, -59.016
1263.2000, -59.495
1263.6000, -59.608
1264.0000, -60.179
1264.4000, -60.450
1264.8000, -60.715
1265.2000, -61.188
1265.6000, -61.539
1266.0000, -61.940
1266.4000, -62.310
1266.8000, -62.658
1267.2000, -63.009
1267.6000, -63.323
1268.0000, -63.792
1268.4000, -63.924
1268.8000, -63.947
1269.2000, -64.038
1269.6000, -63.996
1270.0000, -63.812
1270.4000, -63.667
1270.8000, -63.388
1271.2000, -63.048
1271.6000, -62.845
1272.0000, -62.500
1272.4000, -62.298
1272.8000, -61.806
1273.2000, -61.577
1273.6000, -61.201
1274.0000, -60.907
1274.4000, -60.686
1274.8000, -60.459
1275.2000, -60.164
1275.6000, -59.956
1276.0000, -59.590
1276.4000, -59.344
1276.8000, -59.389
1277.2000, -59.258
1277.6000, -58.934
1278.0000, -58.786
1278.4000, -58.815
1278.8000, -58.653
1279.2000, -58.392
1279.6000, -58.270
1280.0000, -58.301
1280.4000, -58.331
1280.8000, -58.094
1281.2000, -58.111
1281.6000, -58.210
1282.0000, -58.199
1282.4000, -58.025
1282.8000, -57.995
1283.2000, -58.021
1283.6000, -58.032
1284.0000, -57.902
1284.4000, -57.947
1284.8000, -57.926
1285.2000, -57.980
1285.6000, -58.120
1286.0000, -58.026
1286.4000, -58.016
1286.8000, -58.188
1287.2000, -58.162
1287.6000, -58.097
1288.0000, -58.117
1288.4000, -58.313
1288.8000, -58.271
1289.2000, -58.330
1289.6000, -58.320
1290.0000, -58.416
1290.4000, -58.470
1290.8000, -58.462
1291.2000, -58.581
1291.6000, -58.642
1292.0000, -58.696
1292.4000, -58.795
1292.8000, -58.836
1293.2000, -58.834
1293.6000, -58.989
1294.0000, -59.014
1294.4000, -59.083
1294.8000, -59.068
1295.2000, -59.069
1295.6000, -59.060
1296.0000, -59.161
1296.4000, -59.336
1296.8000, -59.322
1297.2000, -59.375
1297.6000, -59.332
1298.0000, -59.250
1298.4000, -59.335
1298.8000, -59.540
1299.2000, -59.377
1299.6000, -59.645
1300.0000, -59.417
1300.4000, -59.497
1300.8000, -59.656
1301.2000, -59.659
1301.6000, -59.636
1302.0000, -59.568
1302.4000, -59.686
1302.8000, -59.818
1303.2000, -59.654
1303.6000, -59.854
1304.0000, -59.695
1304.4000, -59.807
1304.8000, -59.762
1305.2000, -59.749
1305.6000, -59.781
1306.0000, -59.893
1306.4000, -59.942
1306.8000, -60.015
1307.2000, -60.059
1307.6000, -59.969
1308.0000, -60.048
1308.4000, -60.218
1308.8000, -60.160
1309.2000, -60.278
1309.6000, -60.203
1310.0000, -60.257
1310.4000, -60.289
1310.8000, -60.293
1311.2000, -60.409
1311.6000, -60.527
1312.0000, -60.521
1312.4000, -60.554
1312.8000, -60.648
1313.2000, -60.759
1313.6000, -60.767
1314.0000, -60.828
1314.4000, -60.983
1314.8000, -61.042
1315.2000, -61.043
1315.6000, -61.214
1316.0000, -61.305
1316.4000, -61.280
1316.8000, -61.569
1317.2000, -61.560
1317.6000, -61.570
1318.0000, -61.605
1318.4000, -61.753
1318.8000, -61.825
1319.2000, -61.707
1319.6000, -61.691
1320.0000, -61.787
1320.4000, -61.790
1320.8000, -61.888
1321.2000, -61.994
1321.6000, -61.926
1322.0000, -61.921
1322.4000, -61.793
1322.8000, -61.838
1323.2000, -61.810
1323.6000, -61.921
1324.0000, -61.695
1324.4000, -61.795
1324.8000, -61.801
1325.2000, -61.724
1325.6000, -61.865
1326.0000, -61.722
1326.4000, -61.669
1326.8000, -61.550
1327.2000, -61.598
1327.6000, -61.656
1328.0000, -61.485
1328.4000, -61.641
1328.8000, -61.627
1329.2000, -61.792
1329.6000, -61.878
1330.0000, -61.900
1330.4000, -61.995
1330.8000, -62.129
1331.2000, -62.311
1331.6000, -62.293
1332.0000, -62.615
1332.4000, -62.710
1332.8000, -63.026
1333.2000, -63.304
1333.6000, -63.433
1334.0000, -63.801
1334.4000, -64.120
1334.8000, -64.400
1335.2000, -64.483
1335.6000, -64.850
1336.0000, -65.228
1336.4000, -65.394
1336.8000, -65.649
1337.2000, -65.749
1337.6000, -65.938
1338.0000, -65.929
1338.4000, -65.950
1338.8000, -65.721
1339.2000, -65.553
1339.6000, -65.289
1340.0000, -64.943
1340.4000, -64.620
1340.8000, -64.106
1341.2000, -63.831
1341.6000, -63.485
1342.0000, -63.126
1342.4000, -62.743
1342.8000, -62.541
1343.2000, -62.346
1343.6000, -62.007
1344.0000, -61.733
1344.4000, -61.632
1344.8000, -61.498
1345.2000, -61.439
1345.6000, -61.276
1346.0000, -61.251
1346.4000, -61.365
1346.8000, -61.404
1347.2000, -61.607
1347.6000, -61.720
1348.0000, -61.922
1348.4000, -62.374
1348.8000, -62.725
1349.2000, -62.979
1349.6000, -63.592
1350.0000, -64.134
1350.4000, -64.831
1350.8000, -65.521
1351.2000, -66.612
1351.6000, -67.433
1352.0000, -68.109
1352.4000, -69.347
1352.8000, -69.930
1353.2000, -70.411
1353.6000, -70.850
1354.0000, -70.425
1354.4000, -69.648
1354.8000, -68.878
1355.2000, -67.616
1355.6000, -66.596
1356.0000, -65.751
1356.4000, -65.228
1356.8000, -64.511
1357.2000, -63.849
1357.6000, -63.557
1358.0000, -63.184
1358.4000, -62.787
1358.8000, -62.911
1359.2000, -62.682
1359.6000, -62.578
1360.0000, -62.709
1360.4000, -62.807
1360.8000, -62.907
1361.2000, -63.535
1361.6000, -64.264
1362.0000, -64.717
1362.4000, -65.333
1362.8000, -65.616
1363.2000, -66.258
1363.6000, -66.840
1364.0000, -67.884
1364.4000, -69.268
1364.8000, -70.410
1365.2000, -71.440
1365.6000, -71.987
1366.0000, -71.675
1366.4000, -71.012
1366.8000, -70.480
1367.2000, -69.600
1367.6000, -68.588
1368.0000, -67.708
1368.4000, -66.508
1368.8000, -65.614
1369.2000, -65.093
1369.6000, -64.408
1370.0000, -64.410
1370.4000, -64.331
1370.8000, -63.970
1371.2000, -63.997
1371.6000, -64.173
1372.0000, -64.114
1372.4000, -64.297
1372.8000, -64.719
1373.2000, -64.977
1373.6000, -65.736
1374.0000, -66.113
1374.4000, -67.250
1374.8000, -68.087
1375.2000, -68.915
1375.6000, -69.835
1376.0000, -70.654
1376.4000, -71.387
1376.8000, -71.316
1377.2000, -70.748
1377.6000, -70.039
1378.0000, -69.775
1378.4000, -68.800
1378.8000, -68.118
1379.2000, -67.301
1379.6000, -67.216
1380.0000, -66.942
1380.4000, -66.824
1380.8000, -66.708
1381.2000, -66.655
1381.6000, -66.430
1382.0000, -66.802
1382.4000, -67.119
1382.8000, -67.478
1383.2000, -68.287
1383.6000, -68.584
1384.0000, -68.428
1384.4000, -69.180
1384.8000, -69.815
1385.2000, -70.198
1385.6000, -70.988
1386.0000, -71.150
1386.4000, -71.131
1386.8000, -71.388
1387.2000, -71.087
1387.6000, -71.064
1388.0000, -70.437
1388.4000, -69.907
1388.8000, -69.149
1389.2000, -69.138
1389.6000, -68.618
1390.0000, -68.515
1390.4000, -68.548
1390.8000, -68.236
1391.2000, -68.545
1391.6000, -68.837
1392.0000, -69.301
1392.4000, -69.674
1392.8000, -69.748
1393.2000, -70.012
1393.6000, -70.273
1394.0000, -70.446
1394.4000, -70.836
1394.8000, -71.853
1395.2000, -71.879
1395.6000, -71.997
1396.0000, -72.329
1396.4000, -71.808
1396.8000, -71.310
1397.2000, -71.102
1397.6000, -70.769
1398.0000, -70.823
1398.4000, -70.904
1398.8000, -70.732
1399.2000, -70.970
1399.6000, -71.288
1400.0000, -71.148
1400.4000, -71.283
1400.8000, -71.162
1401.2000, -70.948
1401.6000, -71.232
1402.0000, -71.032
1402.4000, -70.688
1402.8000, -70.797
1403.2000, -71.420
1403.6000, -71.162
1404.0000, -71.483
1404.4000, -71.864
1404.8000, -72.222
1405.2000, -72.427
1405.6000, -72.740
1406.0000, -72.200
1406.4000, -72.459
1406.8000, -72.541
1407.2000, -72.435
1407.6000, -72.482
1408.0000, -71.735
1408.4000, -71.553
1408.8000, -71.707
1409.2000, -71.569
1409.6000, -71.079
1410.0000, -70.904
1410.4000, -70.438
1410.8000, -70.320
1411.2000, -70.613
1411.6000, -70.748
1412.0000, -70.865
1412.4000, -70.769
1412.8000, -71.578
1413.2000, -71.612
1413.6000, -72.527
1414.0000, -73.142
1414.4000, -73.176
1414.8000, -73.137
1415.2000, -72.737
1415.6000, -72.708
1416.0000, -71.889
1416.4000, -71.248
1416.8000, -70.915
1417.2000, -70.430
1417.6000, -70.336
1418.0000, -70.552
1418.4000, -70.118
1418.8000, -69.675
1419.2000, -70.111
1419.6000, -70.582
1420.0000, -71.015
1420.4000, -71.689
1420.8000, -72.204
1421.2000, -73.250
1421.6000, -73.474
1422.0000, -73.890
1422.4000, -73.416
1422.8000, -73.625
1423.2000, -72.400
1423.6000, -71.682
1424.0000, -71.408
1424.4000, -70.354
1424.8000, -70.160
1425.2000, -69.758
1425.6000, -69.588
1426.0000, -69.804
1426.4000, -70.330
1426.8000, -70.692
1427.2000, -71.455
1427.6000, -73.059
1428.0000, -73.828
1428.4000, -74.730
1428.8000, -75.533
1429.2000, -75.721
1429.6000, -75.086
1430.0000, -73.095
1430.4000, -72.317
1430.8000, -71.550
1431.2000, -70.333
1431.6000, -70.133
1432.0000, -69.980
1432.4000, -69.878
1432.8000, -69.940
1433.2000, -70.019
1433.6000, -70.767
1434.0000, -71.987
1434.4000, -72.659
1434.8000, -74.276
1435.2000, -75.072
1435.6000, -75.499
1436.0000, -75.905
1436.4000, -74.974
1436.8000, -72.916
1437.2000, -71.829
1437.6000, -70.899
1438.0000, -70.477
1438.4000, -69.695
1438.8000, -69.584
1439.2000, -69.533
1439.6000, -69.944
1440.0000, -70.725
1440.4000, -71.443
1440.8000, -72.518
1441.2000, -74.524
1441.6000, -75.645
1442.0000, -77.484
1442.4000, -77.096
1442.8000, -75.532
1443.2000, -73.891
1443.6000, -73.073
1444.0000, -71.386
1444.4000, -70.779
1444.8000, -70.708
1445.2000, -70.409
1445.6000, -70.296
1446.0000, -70.757
1446.4000, -71.607
1446.8000, -72.296
1447.2000, -73.461
1447.6000, -74.466
1448.0000, -76.134
1448.4000, -77.559
1448.8000, -77.791
1449.2000, -75.472
1449.6000, -73.990
1450.0000, -73.199
1450.4000, -71.750
1450.8000, -71.067
1451.2000, -71.098
1451.6000, -70.707
1452.0000, -70.842
1452.4000, -71.278
1452.8000, -72.595
1453.2000, -73.299
1453.6000, -74.574
1454.0000, -76.531
1454.4000, -78.047
1454.8000, -77.086
1455.2000, -75.710
1455.6000, -75.712
1456.0000, -73.477
1456.4000, -72.327
1456.8000, -71.492
1457.2000, -70.928
1457.6000, -70.837
1458.0000, -70.915
1458.4000, -71.744
1458.8000, -72.257
1459.2000, -73.223
1459.6000, -74.126
1460.0000, -76.749
1460.4000, -77.688
1460.8000, -77.368
1461.2000, -77.449
1461.6000, -75.355
1462.0000, -74.152
1462.4000, -72.887
1462.8000, -72.369
1463.2000, -71.603
1463.6000, -71.590
1464.0000, -72.067
1464.4000, -72.248
1464.8000, -72.633
1465.2000, -73.694
1465.6000, -75.125
1466.0000, -76.817
1466.4000, -77.030
1466.8000, -76.370
1467.2000, -76.562
1467.6000, -74.122
1468.0000, -73.216
1468.4000, -72.657
1468.8000, -72.377
1469.2000, -72.267
1469.6000, -72.012
1470.0000, -72.701
1470.4000, -72.999
1470.8000, -73.819
1471.2000, -74.549
1471.6000, -76.013
1472.0000, -76.625
1472.4000, -76.528
1472.8000, -76.870
1473.2000, -75.211
1473.6000, -75.368
1474.0000, -73.789
1474.4000, -72.939
1474.8000, -72.726
1475.2000, -72.531
1475.6000, -73.265
1476.0000, -73.699
1476.4000, -73.723
1476.8000, -74.727
1477.2000, -74.953
1477.6000, -76.514
1478.0000, -75.923
1478.4000, -76.244
1478.8000, -74.979
1479.2000, -74.927
1479.6000, -74.285
1480.0000, -73.801
1480.4000, -73.706
1480.8000, -73.240
1481.2000, -73.657
1481.6000, -74.709
1482.0000, -74.338
1482.4000, -75.058
1482.8000, -75.489
1483.2000, -76.768
1483.6000, -76.110
1484.0000, -76.268
1484.4000, -75.217
1484.8000, -75.564
1485.2000, -75.011
1485.6000, -74.301
1486.0000, -74.404
1486.4000, -74.379
1486.8000, -74.042
1487.2000, -74.489
1487.6000, -75.296
1488.0000, -75.503
1488.4000, -75.020
1488.8000, -76.028
1489.2000, -75.697
1489.6000, -76.372
1490.0000, -74.983
1490.4000, -74.944
1490.8000, -74.958
1491.2000, -74.863
1491.6000, -74.753
1492.0000, -74.256
1492.4000, -74.334
1492.8000, -74.979
1493.2000, -74.842
1493.6000, -74.817
1494.0000, -74.908
1494.4000, -74.992
1494.8000, -75.081
1495.2000, -75.138
1495.6000, -75.488
1496.0000, -74.864
1496.4000, -75.676
1496.8000, -75.521
1497.2000, -75.200
1497.6000, -74.440
1498.0000, -74.302
1498.4000, -75.321
1498.8000, -75.542
1499.2000, -75.957
1499.6000, -75.397
1500.0000, -75.727
1500.4000, -75.746
1500.8000, -76.300
1501.2000, -75.964
1501.6000, -75.466
1502.0000, -75.958
1502.4000, -75.414
1502.8000, -75.597
1503.2000, -75.578
1503.6000, -75.086
1504.0000, -74.805
1504.4000, -74.833
1504.8000, -75.082
1505.2000, -75.387
1505.6000, -76.182
1506.0000, -75.973
1506.4000, -76.034
1506.8000, -76.380
1507.2000, -75.772
1507.6000, -76.637
1508.0000, -75.681
1508.4000, -74.584
1508.8000, -75.106
1509.2000, -74.404
1509.6000, -75.083
1510.0000, -74.421
1510.4000, -75.134
1510.8000, -75.761
1511.2000, -76.074
1511.6000, -76.795
1512.0000, -77.558
1512.4000, -76.876
1512.8000, -78.331
1513.2000, -76.864
1513.6000, -75.993
1514.0000, -75.628
1514.4000, -74.977
1514.8000, -75.492
1515.2000, -75.043
1515.6000, -75.308
1516.0000, -75.574
1516.4000, -76.547
1516.8000, -78.660
1517.2000, -77.700
1517.6000, -78.348
1518.0000, -77.766
1518.4000, -76.054
1518.8000, -75.636
1519.2000, -75.216
1519.6000, -74.820
1520.0000, -74.961
1520.4000, -74.991
1520.8000, -75.123
1521.2000, -75.759
1521.6000, -76.858
1522.0000, -78.443
1522.4000, -80.994
1522.8000, -81.497
1523.2000, -76.814
1523.6000, -77.641
1524.0000, -76.712
1524.4000, -75.303
1524.8000, -74.709
1525.2000, -75.228
1525.6000, -75.253
1526.0000, -75.917
1526.4000, -76.880
1526.8000, -78.388
1527.2000, -81.010
1527.6000, -80.971
1528.0000, -80.392
1528.4000, -78.695
1528.8000, -76.816
1529.2000, -75.869
1529.6000, -75.470
1530.0000, -74.876
1530.4000, -75.929
1530.8000, -75.015
1531.2000, -75.555
1531.6000, -76.780
1532.0000, -79.578
1532.4000, -79.831
1532.8000, -80.083
1533.2000, -80.090
1533.6000, -77.401
1534.0000, -76.785
1534.4000, -76.947
1534.8000, -75.628
1535.2000, -74.968
1535.6000, -76.203
1536.0000, -77.075
1536.4000, -76.568
1536.8000, -78.319
1537.2000, -78.525
1537.6000, -82.281
1538.0000, -84.881
1538.4000, -79.786
1538.8000, -77.932
1539.2000, -77.934
1539.6000, -75.967
1540.0000, -76.350
1540.4000, -75.353
1540.8000, -75.845
1541.2000, -76.870
1541.6000, -78.163
1542.0000, -78.553
1542.4000, -84.796
1542.8000, -82.109
1543.2000, -83.613
1543.6000, -79.529
1544.0000, -76.729
1544.4000, -76.564
1544.8000, -76.193
1545.2000, -76.302
1545.6000, -76.978
1546.0000, -77.181
1546.4000, -77.773
1546.8000, -80.552
1547.2000, -81.821
1547.6000, -83.300
1548.0000, -82.285
1548.4000, -83.314
1548.8000, -76.888
1549.2000, -77.017
1549.6000, -75.894
1550.0000, -76.320
1550.4000, -75.773
1550.8000, -76.763
1551.2000, -76.889
1551.6000, -80.018
1552.0000, -78.814
1552.4000, -84.304
1552.8000, -81.837
1553.2000, -80.208
1553.6000, -80.055
1554.0000, -78.405
1554.4000, -77.167
1554.8000, -76.926
1555.2000, -77.445
1555.6000, -76.706
1556.0000, -78.602
1556.4000, -78.219
1556.8000, -80.834
1557.2000, -83.051
1557.6000, -80.880
1558.0000, -82.780
1558.4000, -80.539
1558.8000, -78.116
1559.2000, -76.602
1559.6000, -76.928
1560.0000, -76.741
1560.4000, -76.707
1560.8000, -76.961
1561.2000, -79.859
1561.6000, -82.081
1562.0000, -82.059
1562.4000, -84.555
1562.8000, -96.769
1563.2000, -82.463
1563.6000, -80.071
1564.0000, -76.918
1564.4000, -76.669
1564.8000, -77.254
1565.2000, -77.507
1565.6000, -78.736
1566.0000, -79.857
1566.4000, -80.078
1566.8000, -80.844
1567.2000, -81.286
1567.6000, -82.391
1568.0000, -80.370
1568.4000, -77.799
1568.8000, -77.598
1569.2000, -77.664
1569.6000, -76.178
1570.0000, -76.595
1570.4000, -78.060
1570.8000, -77.850
1571.2000, -79.189
1571.6000, -80.481
1572.0000, -80.277
1572.4000, -82.185
1572.8000, -83.856
1573.2000, -79.218
1573.6000, -78.552
1574.0000, -78.249
1574.4000, -79.604
1574.8000, -77.677
1575.2000, -79.223
1575.6000, -78.229
1576.0000, -81.035
1576.4000, -82.801
1576.8000, -81.297
1577.2000, -85.093
1577.6000, -81.470
1578.0000, -81.706
1578.4000, -79.584
1578.8000, -78.356
1579.2000, -80.202
1579.6000, -78.012
1580.0000, -78.921
1580.4000, -78.589
1580.8000, -80.807
1581.2000, -80.540
1581.6000, -80.677
1582.0000, -82.135
1582.4000, -81.571
1582.8000, -78.891
1583.2000, -78.733
1583.6000, -80.422
1584.0000, -79.366
1584.4000, -77.076
1584.8000, -79.078
1585.2000, -79.682
1585.6000, -80.560
1586.0000, -78.370
1586.4000, -81.360
1586.8000, -80.571
1587.2000, -81.694
1587.6000, -79.910
1588.0000, -79.242
1588.4000, -77.934
1588.8000, -78.027
1589.2000, -80.415
1589.6000, -77.336
1590.0000, -80.143
1590.4000, -78.117
1590.8000, -80.722
1591.2000, -82.607
1591.6000, -82.961
1592.0000, -83.197
1592.4000, -84.062
1592.8000, -80.010
1593.2000, -80.509
1593.6000, -79.595
1594.0000, -78.618
1594.4000, -80.652
1594.8000, -80.247
1595.2000, -80.560
1595.6000, -83.231
1596.0000, -81.425
1596.4000, -80.708
1596.8000, -81.036
1597.2000, -83.993
1597.6000, -82.019
1598.0000, -78.798
1598.4000, -80.825
1598.8000, -78.896
1599.2000, -80.292
1599.6000, -80.409
1600.0000, -81.908
1600.4000, -78.634
1600.8000, -82.363
1601.2000, -80.911
1601.6000, -81.336
1602.0000, -81.842
1602.4000, -83.097
1602.8000, -81.700
1603.2000, -83.231
1603.6000, -79.035
1604.0000, -81.431
1604.4000, -85.906
1604.8000, -80.389
1605.2000, -81.746
1605.6000, -81.298
1606.0000, -81.526
1606.4000, -83.127
1606.8000, -84.249
1607.2000, -88.013
1607.6000, -80.318
1608.0000, -84.028
1608.4000, -81.784
1608.8000, -84.283
1609.2000, -82.251
1609.6000, -78.446
1610.0000, -79.859
1610.4000, -83.184
1610.8000, -83.225
1611.2000, -86.932
1611.6000, -85.591
1612.0000, -82.985
1612.4000, -84.317
1612.8000,-210.000
1613.2000, -84.021
1613.6000, -82.530
1614.0000, -81.482
1614.4000, -81.443
1614.8000, -80.971
1615.2000, -80.648
1615.6000, -80.806
1616.0000, -87.068
1616.4000, -84.021
1616.8000, -83.998
1617.2000, -81.628
1617.6000, -82.651
1618.0000, -84.457
1618.4000, -85.374
1618.8000, -83.715
1619.2000, -82.121
1619.6000, -84.531
1620.0000, -82.166
1620.4000, -83.835
1620.8000, -80.903
1621.2000, -83.739
1621.6000, -82.921
1622.0000, -83.765
1622.4000, -86.872
1622.8000, -88.917
1623.2000, -81.877
1623.6000, -84.103
1624.0000, -86.451
1624.4000, -90.036
1624.8000, -82.285
1625.2000, -81.695
1625.6000, -83.989
1626.0000, -83.039
1626.4000, -83.254
1626.8000, -80.856
1627.2000, -87.120
1627.6000, -82.485
1628.0000, -81.916
1628.4000, -82.246
1628.8000, -83.975
1629.2000, -88.499
1629.6000, -81.841
1630.0000, -86.626
1630.4000, -81.189
1630.8000, -81.231
1631.2000, -81.893
1631.6000, -82.135
1632.0000,-210.000
1632.4000,-210.000
1632.8000, -85.022
1633.2000, -84.767
1633.6000, -87.363
1634.0000, -82.360
1634.4000, -81.276
1634.8000, -88.182
1635.2000, -82.523
1635.6000, -81.636
1636.0000, -80.729
1636.4000, -78.927
1636.8000, -84.725
1637.2000, -82.642
1637.6000, -93.930
1638.0000, -97.313
1638.4000, -98.100
1638.8000, -97.671
1639.2000, -88.094
1639.6000, -86.071
1640.0000, -79.907
1640.4000, -84.319
1640.8000,-210.000
1641.2000, -82.372
1641.6000, -85.502
1642.0000, -88.410
1642.4000, -90.205
1642.8000, -86.597
1643.2000, -91.241
1643.6000,-210.000
1644.0000, -92.194
1644.4000, -81.203
1644.8000,-210.000
1645.2000,-210.000
1645.6000, -80.915
1646.0000, -82.608
1646.4000, -85.144
1646.8000, -90.604
1647.2000, -83.447
1647.6000,-210.000
1648.0000, -86.500
1648.4000, -85.005
1648.8000,-210.000
1649.2000, -80.561
1649.6000, -83.005
1650.0000,-210.000
1650.4000,-210.000
1650.8000, -83.325
1651.2000, -85.915
1651.6000, -87.996
1652.0000, -87.734
1652.4000, -80.966
1652.8000,-210.000
1653.2000, -87.420
1653.6000, -89.516
1654.0000, -91.417
1654.4000, -84.510
1654.8000,-210.000
1655.2000, -82.780
1655.6000, -82.062
1656.0000, -87.856
1656.4000,-210.000
1656.8000, -81.800
1657.2000,-210.000
1657.6000,-210.000
1658.0000, -81.294
1658.4000,-210.000
1658.8000, -83.629
1659.2000, -82.291
1659.6000,-210.000
1660.0000,-210.000
1660.4000, -86.986
1660.8000, -83.001
1661.2000, -82.790
1661.6000, -98.196
1662.0000,-210.000
1662.4000,-102.542
1662.8000, -80.404
1663.2000, -84.213
1663.6000, -86.243
1664.0000, -85.878
1664.4000, -82.540
1664.8000, -84.576
1665.2000,-210.000
1665.6000,-210.000
1666.0000, -85.910
1666.4000,-210.000
1666.8000,-103.915
1667.2000,-210.000
1667.6000,-210.000
1668.0000,-210.000
1668.4000, -79.161
1668.8000, -85.558
1669.2000, -89.029
1669.6000, -84.841
1670.0000, -83.438
1670.4000, -83.691
1670.8000, -84.814
1671.2000,-210.000
1671.6000, -82.416
1672.0000, -81.969
1672.4000, -81.144
1672.8000,-210.000
1673.2000,-210.000
1673.6000, -80.906
1674.0000, -92.032
1674.4000, -97.202
1674.8000, -91.100
1675.2000, -77.867
1675.6000,-210.000
1676.0000,-210.000
1676.4000, -84.426
1676.8000, -90.820
1677.2000, -79.793
1677.6000,-210.000
1678.0000, -74.845
1678.4000, -81.633
1678.8000, -84.067
1679.2000, -76.803
1679.6000, -80.956
1680.0000, -82.285
1680.4000, -80.653
1680.8000, -81.042
1681.2000,-210.000
1681.6000, -88.647
1682.0000,-210.000
1682.4000, -82.669
1682.8000,-210.000
1683.2000, -81.311
1683.6000, -85.201
1684.0000, -74.191
1684.4000, -92.155
1684.8000, -82.173
1685.2000,-210.000
1685.6000, -80.537
1686.0000, -82.519
1686.4000,-210.000
1686.8000,-210.000
1687.2000,-210.000
1687.6000,-210.000
1688.0000, -74.543
1688.4000, -78.801
1688.8000, -79.533
1689.2000,-210.000
1689.6000,-210.000
1690.0000,-210.000
1690.4000, -79.353
1690.8000, -87.130
1691.2000, -75.426
1691.6000, -83.487
1692.0000,-210.000
1692.4000, -77.148
1692.8000,-210.000
1693.2000,-210.000
1693.6000, -79.964
1694.0000, -74.264
1694.4000, -91.533
1694.8000, -86.724
1695.2000,-210.000
1695.6000, -78.016
1696.0000, -80.236
1696.4000, -76.714
1696.8000, -83.544
1697.2000, -77.540
1697.6000,-210.000
1698.0000, -80.579
1698.4000, -72.584
1698.8000,-210.000
1699.2000, -82.255
1699.6000,-210.000
1700.0000, -77.792
