74CSV  	
// AQ6374 OPTICAL SPECTRUM ANALYZER //                  
35
"CTRWL",1125.000000
"SPAN",1150.000000
"START WL", 550.000000
"STOP WL",1700.000000
"WLFREQ", 0
"REFL",-56.6
"LSCL", 5.0
"RESLN",1.000
"AVG",   1
"SMPLAUTO",      1
"SMPL",       5751
"SMPLINTVL",0.2000
"HIGH1"
"MEAS"
"LSUNT",0
"NMSKH","OFF"
"RESCOR",0
"SMOOTH",0
"MEASWL",1
"SWPSPD",0
"MODELNAME","AQ6374"
"CHGPT",        102
"RESCAL0_0",       9996
"RESCAL0_1",       -866
"RESCAL0_2",    1341521
"RESCAL1_0",      10053
"RESCAL1_1",          0
"RESCAL1_2",          0
"CORESIZE", 0






"[TRACE DATA]"
 550.0000,-210.000
 550.2000, -84.100
 550.4000, -72.020
 550.6000,-210.000
 550.8000, -87.246
 551.0000, -69.426
 551.2000, -68.035
 551.4000, -68.304
 551.6000,-210.000
 551.8000,-210.000
 552.0000,-210.000
 552.2000, -70.817
 552.4000, -72.440
 552.6000, -74.108
 552.8000,-210.000
 553.0000, -70.276
 553.2000, -75.603
 553.4000, -75.099
 553.6000, -70.904
 553.8000, -73.649
 554.0000,-210.000
 554.2000,-210.000
 554.4000, -84.052
 554.6000, -70.252
 554.8000, -72.219
 555.0000, -72.140
 555.2000, -70.014
 555.4000, -70.941
 555.6000, -68.173
 555.8000,-210.000
 556.0000,-210.000
 556.2000, -75.574
 556.4000, -69.957
 556.6000, -74.601
 556.8000,-210.000
 557.0000, -73.402
 557.2000, -68.003
 557.4000, -73.623
 557.6000, -71.724
 557.8000,-210.000
 558.0000,-210.000
 558.2000, -67.156
 558.4000, -67.452
 558.6000, -70.536
 558.8000, -69.607
 559.0000, -72.210
 559.2000, -71.740
 559.4000, -69.116
 559.6000,-210.000
 559.8000, -67.510
 560.0000, -72.000
 560.2000, -72.532
 560.4000, -67.936
 560.6000, -67.591
 560.8000, -71.041
 561.0000, -68.729
 561.2000, -72.585
 561.4000, -70.507
 561.6000, -70.234
 561.8000, -67.125
 562.0000,-210.000
 562.2000, -70.466
 562.4000,-210.000
 562.6000, -67.502
 562.8000,-210.000
 563.0000, -67.608
 563.2000, -72.057
 563.4000,-210.000
 563.6000, -71.821
 563.8000, -69.418
 564.0000, -77.356
 564.2000, -70.082
 564.4000, -68.111
 564.6000, -70.724
 564.8000, -71.389
 565.0000, -69.550
 565.2000, -75.001
 565.4000, -73.125
 565.6000, -68.393
 565.8000, -68.398
 566.0000, -67.333
 566.2000, -68.404
 566.4000, -69.511
 566.6000, -66.414
 566.8000, -73.354
 567.0000,-210.000
 567.2000, -69.067
 567.4000, -72.761
 567.6000, -71.882
 567.8000, -73.263
 568.0000, -69.877
 568.2000, -73.263
 568.4000, -71.131
 568.6000, -70.845
 568.8000, -78.516
 569.0000, -70.423
 569.2000, -74.072
 569.4000, -66.946
 569.6000,-210.000
 569.8000, -73.019
 570.0000, -68.673
 570.2000, -67.332
 570.4000, -71.634
 570.6000, -67.228
 570.8000, -67.859
 571.0000, -69.281
 571.2000, -71.360
 571.4000, -69.802
 571.6000, -69.594
 571.8000, -70.164
 572.0000, -67.391
 572.2000, -67.483
 572.4000, -70.190
 572.6000, -67.332
 572.8000, -70.786
 573.0000, -68.143
 573.2000, -67.951
 573.4000, -67.041
 573.6000, -68.232
 573.8000, -68.482
 574.0000, -66.855
 574.2000, -65.818
 574.4000, -67.034
 574.6000, -67.687
 574.8000, -67.979
 575.0000, -67.284
 575.2000, -67.162
 575.4000, -66.823
 575.6000, -66.231
 575.8000, -67.347
 576.0000, -68.551
 576.2000, -66.473
 576.4000, -66.481
 576.6000, -66.881
 576.8000, -65.046
 577.0000, -67.143
 577.2000, -67.425
 577.4000, -66.782
 577.6000, -65.407
 577.8000, -66.309
 578.0000, -66.263
 578.2000, -66.317
 578.4000, -65.861
 578.6000, -65.768
 578.8000, -66.321
 579.0000, -65.194
 579.2000, -65.781
 579.4000, -67.928
 579.6000, -66.516
 579.8000, -66.745
 580.0000, -65.206
 580.2000, -65.710
 580.4000, -64.389
 580.6000, -65.935
 580.8000, -65.446
 581.0000, -65.096
 581.2000, -65.637
 581.4000, -64.633
 581.6000, -66.191
 581.8000, -64.486
 582.0000, -66.542
 582.2000, -65.450
 582.4000, -63.709
 582.6000, -64.934
 582.8000, -65.120
 583.0000, -64.446
 583.2000, -65.136
 583.4000, -64.718
 583.6000, -64.086
 583.8000, -65.157
 584.0000, -63.833
 584.2000, -64.575
 584.4000, -63.755
 584.6000, -65.056
 584.8000, -64.370
 585.0000, -63.590
 585.2000, -63.594
 585.4000, -64.699
 585.6000, -64.380
 585.8000, -64.077
 586.0000, -63.825
 586.2000, -63.685
 586.4000, -63.363
 586.6000, -63.561
 586.8000, -63.505
 587.0000, -63.830
 587.2000, -63.326
 587.4000, -62.927
 587.6000, -63.680
 587.8000, -62.606
 588.0000, -63.366
 588.2000, -63.129
 588.4000, -63.591
 588.6000, -64.537
 588.8000, -62.856
 589.0000, -63.319
 589.2000, -63.267
 589.4000, -62.440
 589.6000, -62.820
 589.8000, -62.972
 590.0000, -62.648
 590.2000, -62.507
 590.4000, -62.342
 590.6000, -62.186
 590.8000, -62.402
 591.0000, -62.223
 591.2000, -62.950
 591.4000, -62.541
 591.6000, -62.288
 591.8000, -62.239
 592.0000, -62.172
 592.2000, -62.245
 592.4000, -62.121
 592.6000, -62.255
 592.8000, -62.109
 593.0000, -62.245
 593.2000, -61.645
 593.4000, -61.635
 593.6000, -61.984
 593.8000, -62.044
 594.0000, -61.853
 594.2000, -61.299
 594.4000, -61.294
 594.6000, -61.565
 594.8000, -61.076
 595.0000, -61.562
 595.2000, -61.387
 595.4000, -61.474
 595.6000, -60.868
 595.8000, -60.912
 596.0000, -61.309
 596.2000, -61.188
 596.4000, -61.113
 596.6000, -60.791
 596.8000, -60.504
 597.0000, -60.927
 597.2000, -61.079
 597.4000, -60.708
 597.6000, -60.764
 597.8000, -60.648
 598.0000, -61.015
 598.2000, -60.656
 598.4000, -60.469
 598.6000, -60.818
 598.8000, -60.561
 599.0000, -60.383
 599.2000, -60.341
 599.4000, -60.290
 599.6000, -60.237
 599.8000, -59.930
 600.0000, -60.044
 600.2000, -59.925
 600.4000, -60.339
 600.6000, -59.918
 600.8000, -59.892
 601.0000, -59.884
 601.2000, -60.056
 601.4000, -59.646
 601.6000, -59.896
 601.8000, -59.522
 602.0000, -59.853
 602.2000, -59.748
 602.4000, -59.765
 602.6000, -59.303
 602.8000, -59.680
 603.0000, -59.378
 603.2000, -59.353
 603.4000, -59.372
 603.6000, -59.235
 603.8000, -59.139
 604.0000, -59.077
 604.2000, -58.959
 604.4000, -59.190
 604.6000, -58.982
 604.8000, -58.812
 605.0000, -58.987
 605.2000, -58.984
 605.4000, -58.979
 605.6000, -58.659
 605.8000, -58.701
 606.0000, -58.192
 606.2000, -58.416
 606.4000, -58.379
 606.6000, -58.319
 606.8000, -58.264
 607.0000, -58.194
 607.2000, -58.126
 607.4000, -58.256
 607.6000, -58.193
 607.8000, -57.913
 608.0000, -58.097
 608.2000, -57.931
 608.4000, -57.999
 608.6000, -57.957
 608.8000, -58.022
 609.0000, -57.764
 609.2000, -57.842
 609.4000, -57.770
 609.6000, -57.785
 609.8000, -57.813
 610.0000, -57.467
 610.2000, -57.462
 610.4000, -57.392
 610.6000, -57.372
 610.8000, -57.401
 611.0000, -57.312
 611.2000, -57.244
 611.4000, -57.287
 611.6000, -57.041
 611.8000, -57.115
 612.0000, -56.695
 612.2000, -56.781
 612.4000, -56.932
 612.6000, -56.892
 612.8000, -56.815
 613.0000, -56.683
 613.2000, -56.701
 613.4000, -56.648
 613.6000, -56.585
 613.8000, -56.677
 614.0000, -56.682
 614.2000, -56.337
 614.4000, -56.438
 614.6000, -56.408
 614.8000, -56.226
 615.0000, -56.234
 615.2000, -56.210
 615.4000, -56.275
 615.6000, -56.066
 615.8000, -56.087
 616.0000, -55.943
 616.2000, -55.918
 616.4000, -55.879
 616.6000, -56.020
 616.8000, -55.718
 617.0000, -55.794
 617.2000, -55.677
 617.4000, -55.644
 617.6000, -55.492
 617.8000, -55.628
 618.0000, -55.420
 618.2000, -55.313
 618.4000, -55.351
 618.6000, -55.235
 618.8000, -55.222
 619.0000, -55.103
 619.2000, -55.273
 619.4000, -55.137
 619.6000, -55.232
 619.8000, -55.129
 620.0000, -54.927
 620.2000, -54.836
 620.4000, -54.936
 620.6000, -54.755
 620.8000, -54.790
 621.0000, -54.701
 621.2000, -54.765
 621.4000, -54.659
 621.6000, -54.602
 621.8000, -54.605
 622.0000, -54.471
 622.2000, -54.476
 622.4000, -54.374
 622.6000, -54.224
 622.8000, -54.096
 623.0000, -54.204
 623.2000, -54.176
 623.4000, -54.142
 623.6000, -54.045
 623.8000, -54.067
 624.0000, -54.083
 624.2000, -53.760
 624.4000, -53.984
 624.6000, -53.802
 624.8000, -53.785
 625.0000, -53.701
 625.2000, -53.538
 625.4000, -53.631
 625.6000, -53.493
 625.8000, -53.493
 626.0000, -53.491
 626.2000, -53.508
 626.4000, -53.365
 626.6000, -53.342
 626.8000, -53.351
 627.0000, -53.261
 627.2000, -53.129
 627.4000, -53.264
 627.6000, -53.077
 627.8000, -53.113
 628.0000, -52.956
 628.2000, -53.045
 628.4000, -52.894
 628.6000, -53.018
 628.8000, -52.919
 629.0000, -52.889
 629.2000, -52.805
 629.4000, -52.710
 629.6000, -52.610
 629.8000, -52.663
 630.0000, -52.657
 630.2000, -52.469
 630.4000, -52.505
 630.6000, -52.498
 630.8000, -52.304
 631.0000, -52.313
 631.2000, -52.317
 631.4000, -52.260
 631.6000, -52.126
 631.8000, -52.217
 632.0000, -52.178
 632.2000, -52.205
 632.4000, -52.100
 632.6000, -52.007
 632.8000, -52.031
 633.0000, -51.885
 633.2000, -51.986
 633.4000, -51.885
 633.6000, -51.994
 633.8000, -51.788
 634.0000, -51.848
 634.2000, -51.666
 634.4000, -51.636
 634.6000, -51.542
 634.8000, -51.540
 635.0000, -51.513
 635.2000, -51.477
 635.4000, -51.525
 635.6000, -51.441
 635.8000, -51.273
 636.0000, -51.413
 636.2000, -51.479
 636.4000, -51.367
 636.6000, -51.246
 636.8000, -51.183
 637.0000, -51.259
 637.2000, -51.156
 637.4000, -51.121
 637.6000, -51.070
 637.8000, -51.050
 638.0000, -50.940
 638.2000, -50.862
 638.4000, -50.889
 638.6000, -50.923
 638.8000, -50.996
 639.0000, -50.941
 639.2000, -50.838
 639.4000, -50.712
 639.6000, -50.706
 639.8000, -50.679
 640.0000, -50.639
 640.2000, -50.669
 640.4000, -50.709
 640.6000, -50.727
 640.8000, -50.696
 641.0000, -50.550
 641.2000, -50.542
 641.4000, -50.401
 641.6000, -50.467
 641.8000, -50.372
 642.0000, -50.396
 642.2000, -50.333
 642.4000, -50.256
 642.6000, -50.165
 642.8000, -50.124
 643.0000, -50.225
 643.2000, -50.211
 643.4000, -50.054
 643.6000, -50.186
 643.8000, -50.278
 644.0000, -50.001
 644.2000, -49.934
 644.4000, -50.036
 644.6000, -49.980
 644.8000, -50.007
 645.0000, -49.939
 645.2000, -49.865
 645.4000, -49.891
 645.6000, -49.811
 645.8000, -49.891
 646.0000, -49.853
 646.2000, -49.776
 646.4000, -49.781
 646.6000, -49.856
 646.8000, -49.693
 647.0000, -49.684
 647.2000, -49.706
 647.4000, -49.643
 647.6000, -49.794
 647.8000, -49.596
 648.0000, -49.558
 648.2000, -49.559
 648.4000, -49.500
 648.6000, -49.565
 648.8000, -49.488
 649.0000, -49.546
 649.2000, -49.504
 649.4000, -49.551
 649.6000, -49.485
 649.8000, -49.380
 650.0000, -49.362
 650.2000, -49.282
 650.4000, -49.339
 650.6000, -49.291
 650.8000, -49.262
 651.0000, -49.343
 651.2000, -49.329
 651.4000, -49.222
 651.6000, -49.141
 651.8000, -49.261
 652.0000, -49.175
 652.2000, -49.044
 652.4000, -49.173
 652.6000, -49.046
 652.8000, -49.129
 653.0000, -49.140
 653.2000, -48.969
 653.4000, -49.096
 653.6000, -49.017
 653.8000, -48.966
 654.0000, -48.891
 654.2000, -48.894
 654.4000, -48.864
 654.6000, -48.898
 654.8000, -48.872
 655.0000, -48.870
 655.2000, -48.839
 655.4000, -48.832
 655.6000, -48.972
 655.8000, -48.915
 656.0000, -48.872
 656.2000, -48.787
 656.4000, -48.859
 656.6000, -48.691
 656.8000, -48.776
 657.0000, -48.823
 657.2000, -48.739
 657.4000, -48.667
 657.6000, -48.712
 657.8000, -48.662
 658.0000, -48.619
 658.2000, -48.702
 658.4000, -48.661
 658.6000, -48.647
 658.8000, -48.653
 659.0000, -48.578
 659.2000, -48.534
 659.4000, -48.549
 659.6000, -48.502
 659.8000, -48.597
 660.0000, -48.456
 660.2000, -48.527
 660.4000, -48.505
 660.6000, -48.460
 660.8000, -48.515
 661.0000, -48.419
 661.2000, -48.391
 661.4000, -48.507
 661.6000, -48.386
 661.8000, -48.457
 662.0000, -48.365
 662.2000, -48.486
 662.4000, -48.452
 662.6000, -48.461
 662.8000, -48.349
 663.0000, -48.365
 663.2000, -48.197
 663.4000, -48.353
 663.6000, -48.248
 663.8000, -48.334
 664.0000, -48.382
 664.2000, -48.314
 664.4000, -48.230
 664.6000, -48.198
 664.8000, -48.156
 665.0000, -48.124
 665.2000, -48.209
 665.4000, -48.232
 665.6000, -48.187
 665.8000, -48.242
 666.0000, -48.061
 666.2000, -48.096
 666.4000, -48.169
 666.6000, -48.167
 666.8000, -48.184
 667.0000, -48.050
 667.2000, -48.049
 667.4000, -48.190
 667.6000, -48.185
 667.8000, -48.115
 668.0000, -48.131
 668.2000, -47.994
 668.4000, -48.070
 668.6000, -48.058
 668.8000, -47.976
 669.0000, -48.076
 669.2000, -48.029
 669.4000, -48.060
 669.6000, -47.907
 669.8000, -48.017
 670.0000, -47.946
 670.2000, -47.924
 670.4000, -48.097
 670.6000, -47.979
 670.8000, -47.931
 671.0000, -47.879
 671.2000, -47.890
 671.4000, -47.849
 671.6000, -47.799
 671.8000, -47.946
 672.0000, -47.972
 672.2000, -47.929
 672.4000, -47.803
 672.6000, -47.839
 672.8000, -47.950
 673.0000, -47.912
 673.2000, -47.799
 673.4000, -47.843
 673.6000, -47.910
 673.8000, -47.837
 674.0000, -47.911
 674.2000, -47.804
 674.4000, -47.754
 674.6000, -47.875
 674.8000, -47.782
 675.0000, -47.840
 675.2000, -47.870
 675.4000, -47.790
 675.6000, -47.811
 675.8000, -47.770
 676.0000, -47.717
 676.2000, -47.736
 676.4000, -47.859
 676.6000, -47.886
 676.8000, -47.789
 677.0000, -47.880
 677.2000, -47.877
 677.4000, -47.717
 677.6000, -47.800
 677.8000, -47.788
 678.0000, -47.781
 678.2000, -47.780
 678.4000, -47.701
 678.6000, -47.757
 678.8000, -47.840
 679.0000, -47.770
 679.2000, -47.638
 679.4000, -47.711
 679.6000, -47.733
 679.8000, -47.695
 680.0000, -47.651
 680.2000, -47.743
 680.4000, -47.811
 680.6000, -47.611
 680.8000, -47.817
 681.0000, -47.735
 681.2000, -47.688
 681.4000, -47.693
 681.6000, -47.790
 681.8000, -47.630
 682.0000, -47.662
 682.2000, -47.587
 682.4000, -47.757
 682.6000, -47.584
 682.8000, -47.673
 683.0000, -47.739
 683.2000, -47.659
 683.4000, -47.653
 683.6000, -47.687
 683.8000, -47.549
 684.0000, -47.701
 684.2000, -47.645
 684.4000, -47.595
 684.6000, -47.652
 684.8000, -47.678
 685.0000, -47.730
 685.2000, -47.593
 685.4000, -47.654
 685.6000, -47.735
 685.8000, -47.707
 686.0000, -47.689
 686.2000, -47.500
 686.4000, -47.687
 686.6000, -47.656
 686.8000, -47.707
 687.0000, -47.607
 687.2000, -47.582
 687.4000, -47.594
 687.6000, -47.568
 687.8000, -47.767
 688.0000, -47.710
 688.2000, -47.744
 688.4000, -47.612
 688.6000, -47.610
 688.8000, -47.664
 689.0000, -47.774
 689.2000, -47.656
 689.4000, -47.758
 689.6000, -47.597
 689.8000, -47.600
 690.0000, -47.647
 690.2000, -47.717
 690.4000, -47.612
 690.6000, -47.546
 690.8000, -47.652
 691.0000, -47.642
 691.2000, -47.740
 691.4000, -47.624
 691.6000, -47.699
 691.8000, -47.510
 692.0000, -47.707
 692.2000, -47.569
 692.4000, -47.669
 692.6000, -47.725
 692.8000, -47.647
 693.0000, -47.656
 693.2000, -47.730
 693.4000, -47.665
 693.6000, -47.702
 693.8000, -47.680
 694.0000, -47.702
 694.2000, -47.593
 694.4000, -47.689
 694.6000, -47.689
 694.8000, -47.617
 695.0000, -47.793
 695.2000, -47.672
 695.4000, -47.753
 695.6000, -47.681
 695.8000, -47.789
 696.0000, -47.850
 696.2000, -47.650
 696.4000, -47.671
 696.6000, -47.755
 696.8000, -47.811
 697.0000, -47.717
 697.2000, -47.671
 697.4000, -47.694
 697.6000, -47.733
 697.8000, -47.774
 698.0000, -47.814
 698.2000, -47.862
 698.4000, -47.751
 698.6000, -47.737
 698.8000, -47.795
 699.0000, -47.753
 699.2000, -47.836
 699.4000, -47.767
 699.6000, -47.842
 699.8000, -47.807
 700.0000, -47.827
 700.2000, -47.800
 700.4000, -47.815
 700.6000, -47.810
 700.8000, -47.814
 701.0000, -47.876
 701.2000, -47.796
 701.4000, -47.985
 701.6000, -47.905
 701.8000, -47.970
 702.0000, -47.814
 702.2000, -48.088
 702.4000, -47.884
 702.6000, -47.914
 702.8000, -47.804
 703.0000, -48.064
 703.2000, -48.028
 703.4000, -47.892
 703.6000, -48.018
 703.8000, -48.046
 704.0000, -48.001
 704.2000, -47.900
 704.4000, -47.986
 704.6000, -48.041
 704.8000, -48.107
 705.0000, -47.936
 705.2000, -48.041
 705.4000, -48.006
 705.6000, -48.150
 705.8000, -47.997
 706.0000, -48.080
 706.2000, -47.948
 706.4000, -48.101
 706.6000, -48.053
 706.8000, -48.100
 707.0000, -48.097
 707.2000, -48.122
 707.4000, -48.052
 707.6000, -48.256
 707.8000, -48.154
 708.0000, -48.053
 708.2000, -48.142
 708.4000, -48.136
 708.6000, -48.206
 708.8000, -48.148
 709.0000, -48.144
 709.2000, -48.144
 709.4000, -48.220
 709.6000, -48.286
 709.8000, -48.253
 710.0000, -48.303
 710.2000, -48.235
 710.4000, -48.221
 710.6000, -48.308
 710.8000, -48.360
 711.0000, -48.299
 711.2000, -48.217
 711.4000, -48.349
 711.6000, -48.397
 711.8000, -48.387
 712.0000, -48.297
 712.2000, -48.315
 712.4000, -48.370
 712.6000, -48.331
 712.8000, -48.428
 713.0000, -48.343
 713.2000, -48.453
 713.4000, -48.378
 713.6000, -48.662
 713.8000, -48.369
 714.0000, -48.561
 714.2000, -48.414
 714.4000, -48.421
 714.6000, -48.468
 714.8000, -48.548
 715.0000, -48.598
 715.2000, -48.510
 715.4000, -48.589
 715.6000, -48.433
 715.8000, -48.538
 716.0000, -48.451
 716.2000, -48.566
 716.4000, -48.497
 716.6000, -48.537
 716.8000, -48.468
 717.0000, -48.607
 717.2000, -48.609
 717.4000, -48.684
 717.6000, -48.724
 717.8000, -48.629
 718.0000, -48.638
 718.2000, -48.588
 718.4000, -48.632
 718.6000, -48.773
 718.8000, -48.806
 719.0000, -48.745
 719.2000, -48.760
 719.4000, -48.731
 719.6000, -48.842
 719.8000, -48.828
 720.0000, -48.789
 720.2000, -48.834
 720.4000, -48.823
 720.6000, -48.973
 720.8000, -48.847
 721.0000, -48.865
 721.2000, -48.962
 721.4000, -48.930
 721.6000, -48.887
 721.8000, -48.889
 722.0000, -48.994
 722.2000, -48.838
 722.4000, -49.063
 722.6000, -48.978
 722.8000, -49.027
 723.0000, -48.942
 723.2000, -49.074
 723.4000, -49.061
 723.6000, -48.906
 723.8000, -49.088
 724.0000, -48.872
 724.2000, -49.034
 724.4000, -48.841
 724.6000, -49.092
 724.8000, -49.005
 725.0000, -49.172
 725.2000, -49.058
 725.4000, -49.197
 725.6000, -49.023
 725.8000, -49.161
 726.0000, -49.185
 726.2000, -49.123
 726.4000, -49.229
 726.6000, -49.235
 726.8000, -49.192
 727.0000, -49.143
 727.2000, -49.129
 727.4000, -49.146
 727.6000, -49.241
 727.8000, -49.293
 728.0000, -49.152
 728.2000, -49.261
 728.4000, -49.325
 728.6000, -49.333
 728.8000, -49.223
 729.0000, -49.367
 729.2000, -49.267
 729.4000, -49.416
 729.6000, -49.301
 729.8000, -49.373
 730.0000, -49.301
 730.2000, -49.475
 730.4000, -49.359
 730.6000, -49.324
 730.8000, -49.324
 731.0000, -49.441
 731.2000, -49.378
 731.4000, -49.435
 731.6000, -49.471
 731.8000, -49.571
 732.0000, -49.477
 732.2000, -49.519
 732.4000, -49.486
 732.6000, -49.543
 732.8000, -49.576
 733.0000, -49.517
 733.2000, -49.500
 733.4000, -49.509
 733.6000, -49.580
 733.8000, -49.623
 734.0000, -49.596
 734.2000, -49.645
 734.4000, -49.570
 734.6000, -49.671
 734.8000, -49.637
 735.0000, -49.575
 735.2000, -49.669
 735.4000, -49.629
 735.6000, -49.652
 735.8000, -49.586
 736.0000, -49.873
 736.2000, -49.644
 736.4000, -49.880
 736.6000, -49.717
 736.8000, -49.774
 737.0000, -49.797
 737.2000, -49.680
 737.4000, -49.874
 737.6000, -49.716
 737.8000, -49.818
 738.0000, -49.818
 738.2000, -49.889
 738.4000, -49.835
 738.6000, -49.951
 738.8000, -49.868
 739.0000, -49.881
 739.2000, -50.042
 739.4000, -49.862
 739.6000, -49.964
 739.8000, -49.949
 740.0000, -50.046
 740.2000, -49.926
 740.4000, -50.137
 740.6000, -49.843
 740.8000, -49.923
 741.0000, -50.040
 741.2000, -50.097
 741.4000, -49.995
 741.6000, -50.037
 741.8000, -50.115
 742.0000, -50.091
 742.2000, -50.095
 742.4000, -50.099
 742.6000, -50.167
 742.8000, -50.105
 743.0000, -50.114
 743.2000, -50.060
 743.4000, -50.147
 743.6000, -50.182
 743.8000, -50.141
 744.0000, -50.148
 744.2000, -50.272
 744.4000, -50.193
 744.6000, -50.246
 744.8000, -50.224
 745.0000, -50.254
 745.2000, -50.170
 745.4000, -50.239
 745.6000, -50.294
 745.8000, -50.340
 746.0000, -50.230
 746.2000, -50.315
 746.4000, -50.113
 746.6000, -50.284
 746.8000, -50.287
 747.0000, -50.354
 747.2000, -50.322
 747.4000, -50.467
 747.6000, -50.318
 747.8000, -50.397
 748.0000, -50.465
 748.2000, -50.196
 748.4000, -50.515
 748.6000, -50.417
 748.8000, -50.592
 749.0000, -50.393
 749.2000, -50.417
 749.4000, -50.408
 749.6000, -50.557
 749.8000, -50.489
 750.0000, -50.634
 750.2000, -50.486
 750.4000, -50.382
 750.6000, -50.501
 750.8000, -50.355
 751.0000, -50.655
 751.2000, -50.390
 751.4000, -50.682
 751.6000, -50.644
 751.8000, -50.704
 752.0000, -50.660
 752.2000, -50.513
 752.4000, -50.761
 752.6000, -50.502
 752.8000, -50.791
 753.0000, -50.461
 753.2000, -50.613
 753.4000, -50.688
 753.6000, -50.613
 753.8000, -50.797
 754.0000, -50.521
 754.2000, -50.731
 754.4000, -50.530
 754.6000, -50.674
 754.8000, -50.840
 755.0000, -50.649
 755.2000, -50.843
 755.4000, -50.777
 755.6000, -50.789
 755.8000, -50.770
 756.0000, -50.766
 756.2000, -51.070
 756.4000, -50.784
 756.6000, -50.794
 756.8000, -50.897
 757.0000, -50.771
 757.2000, -50.974
 757.4000, -50.833
 757.6000, -50.726
 757.8000, -50.880
 758.0000, -50.820
 758.2000, -50.919
 758.4000, -50.898
 758.6000, -50.989
 758.8000, -51.019
 759.0000, -50.881
 759.2000, -50.843
 759.4000, -50.925
 759.6000, -50.853
 759.8000, -51.026
 760.0000, -50.973
 760.2000, -50.865
 760.4000, -51.132
 760.6000, -50.888
 760.8000, -50.998
 761.0000, -51.108
 761.2000, -51.008
 761.4000, -51.190
 761.6000, -51.184
 761.8000, -50.969
 762.0000, -51.207
 762.2000, -51.100
 762.4000, -51.016
 762.6000, -51.254
 762.8000, -51.299
 763.0000, -51.202
 763.2000, -51.229
 763.4000, -51.242
 763.6000, -51.169
 763.8000, -51.319
 764.0000, -51.191
 764.2000, -51.135
 764.4000, -51.305
 764.6000, -51.217
 764.8000, -51.264
 765.0000, -51.215
 765.2000, -51.252
 765.4000, -51.287
 765.6000, -51.375
 765.8000, -51.423
 766.0000, -51.263
 766.2000, -51.314
 766.4000, -51.427
 766.6000, -51.397
 766.8000, -51.349
 767.0000, -51.406
 767.2000, -51.382
 767.4000, -51.412
 767.6000, -51.329
 767.8000, -51.483
 768.0000, -51.359
 768.2000, -51.585
 768.4000, -51.442
 768.6000, -51.367
 768.8000, -51.604
 769.0000, -51.502
 769.2000, -51.406
 769.4000, -51.474
 769.6000, -51.586
 769.8000, -51.442
 770.0000, -51.579
 770.2000, -51.625
 770.4000, -51.417
 770.6000, -51.520
 770.8000, -51.593
 771.0000, -51.740
 771.2000, -51.448
 771.4000, -51.662
 771.6000, -51.806
 771.8000, -51.519
 772.0000, -51.527
 772.2000, -51.801
 772.4000, -51.670
 772.6000, -51.601
 772.8000, -51.815
 773.0000, -51.747
 773.2000, -51.478
 773.4000, -51.698
 773.6000, -51.922
 773.8000, -51.800
 774.0000, -51.598
 774.2000, -51.775
 774.4000, -51.856
 774.6000, -51.600
 774.8000, -51.747
 775.0000, -51.850
 775.2000, -51.998
 775.4000, -51.719
 775.6000, -51.981
 775.8000, -52.060
 776.0000, -51.827
 776.2000, -51.816
 776.4000, -52.066
 776.6000, -51.945
 776.8000, -51.835
 777.0000, -51.916
 777.2000, -52.138
 777.4000, -52.036
 777.6000, -51.775
 777.8000, -52.128
 778.0000, -52.170
 778.2000, -51.927
 778.4000, -51.794
 778.6000, -51.995
 778.8000, -52.281
 779.0000, -52.096
 779.2000, -51.974
 779.4000, -52.165
 779.6000, -52.377
 779.8000, -52.243
 780.0000, -51.975
 780.2000, -52.095
 780.4000, -52.351
 780.6000, -52.273
 780.8000, -52.224
 781.0000, -52.158
 781.2000, -52.399
 781.4000, -52.135
 781.6000, -52.060
 781.8000, -52.085
 782.0000, -52.352
 782.2000, -52.375
 782.4000, -52.238
 782.6000, -52.269
 782.8000, -52.355
 783.0000, -52.544
 783.2000, -52.373
 783.4000, -52.259
 783.6000, -52.301
 783.8000, -52.543
 784.0000, -52.326
 784.2000, -52.276
 784.4000, -52.354
 784.6000, -52.598
 784.8000, -52.533
 785.0000, -52.300
 785.2000, -52.394
 785.4000, -52.526
 785.6000, -52.486
 785.8000, -52.628
 786.0000, -52.420
 786.2000, -52.589
 786.4000, -52.384
 786.6000, -52.436
 786.8000, -52.602
 787.0000, -52.506
 787.2000, -52.600
 787.4000, -52.680
 787.6000, -52.630
 787.8000, -52.614
 788.0000, -52.674
 788.2000, -52.618
 788.4000, -52.834
 788.6000, -52.646
 788.8000, -52.732
 789.0000, -52.675
 789.2000, -52.858
 789.4000, -52.724
 789.6000, -52.827
 789.8000, -52.711
 790.0000, -52.782
 790.2000, -52.853
 790.4000, -52.894
 790.6000, -52.791
 790.8000, -52.904
 791.0000, -52.869
 791.2000, -52.745
 791.4000, -52.854
 791.6000, -52.919
 791.8000, -52.824
 792.0000, -53.007
 792.2000, -52.944
 792.4000, -53.110
 792.6000, -52.939
 792.8000, -52.951
 793.0000, -52.964
 793.2000, -53.052
 793.4000, -53.011
 793.6000, -53.116
 793.8000, -53.028
 794.0000, -53.150
 794.2000, -53.061
 794.4000, -53.068
 794.6000, -53.114
 794.8000, -53.032
 795.0000, -53.145
 795.2000, -53.197
 795.4000, -53.194
 795.6000, -53.077
 795.8000, -53.210
 796.0000, -53.159
 796.2000, -53.226
 796.4000, -53.243
 796.6000, -53.255
 796.8000, -53.285
 797.0000, -53.205
 797.2000, -53.324
 797.4000, -53.288
 797.6000, -53.122
 797.8000, -53.338
 798.0000, -53.214
 798.2000, -53.335
 798.4000, -53.339
 798.6000, -53.290
 798.8000, -53.372
 799.0000, -53.459
 799.2000, -53.356
 799.4000, -53.380
 799.6000, -53.469
 799.8000, -53.402
 800.0000, -53.503
 800.2000, -53.316
 800.4000, -53.598
 800.6000, -53.482
 800.8000, -53.576
 801.0000, -53.487
 801.2000, -53.587
 801.4000, -53.603
 801.6000, -53.668
 801.8000, -53.538
 802.0000, -53.482
 802.2000, -53.623
 802.4000, -53.595
 802.6000, -53.712
 802.8000, -53.899
 803.0000, -53.752
 803.2000, -53.694
 803.4000, -53.596
 803.6000, -53.512
 803.8000, -53.607
 804.0000, -53.718
 804.2000, -53.795
 804.4000, -53.966
 804.6000, -53.934
 804.8000, -53.748
 805.0000, -53.698
 805.2000, -53.639
 805.4000, -53.726
 805.6000, -53.815
 805.8000, -53.958
 806.0000, -54.048
 806.2000, -54.087
 806.4000, -53.953
 806.6000, -53.882
 806.8000, -53.686
 807.0000, -53.654
 807.2000, -53.841
 807.4000, -53.976
 807.6000, -54.136
 807.8000, -54.203
 808.0000, -54.182
 808.2000, -54.090
 808.4000, -53.743
 808.6000, -53.528
 808.8000, -53.623
 809.0000, -53.820
 809.2000, -53.905
 809.4000, -54.240
 809.6000, -54.423
 809.8000, -54.422
 810.0000, -54.315
 810.2000, -54.206
 810.4000, -53.930
 810.6000, -53.881
 810.8000, -53.830
 811.0000, -53.954
 811.2000, -54.295
 811.4000, -54.491
 811.6000, -54.829
 811.8000, -54.725
 812.0000, -54.682
 812.2000, -54.330
 812.4000, -54.019
 812.6000, -53.833
 812.8000, -53.684
 813.0000, -53.719
 813.2000, -54.219
 813.4000, -54.461
 813.6000, -54.777
 813.8000, -54.972
 814.0000, -55.094
 814.2000, -55.112
 814.4000, -54.650
 814.6000, -54.297
 814.8000, -54.034
 815.0000, -53.836
 815.2000, -53.868
 815.4000, -54.022
 815.6000, -54.423
 815.8000, -54.818
 816.0000, -55.178
 816.2000, -55.403
 816.4000, -55.459
 816.6000, -55.282
 816.8000, -54.885
 817.0000, -54.458
 817.2000, -54.076
 817.4000, -54.010
 817.6000, -53.839
 817.8000, -54.020
 818.0000, -54.131
 818.2000, -54.516
 818.4000, -54.835
 818.6000, -55.281
 818.8000, -55.729
 819.0000, -55.938
 819.2000, -55.756
 819.4000, -55.480
 819.6000, -55.188
 819.8000, -54.556
 820.0000, -54.391
 820.2000, -54.048
 820.4000, -53.950
 820.6000, -54.075
 820.8000, -54.035
 821.0000, -54.280
 821.2000, -54.646
 821.4000, -55.131
 821.6000, -55.523
 821.8000, -55.739
 822.0000, -56.121
 822.2000, -56.231
 822.4000, -56.228
 822.6000, -56.097
 822.8000, -55.667
 823.0000, -55.170
 823.2000, -54.862
 823.4000, -54.460
 823.6000, -54.348
 823.8000, -54.039
 824.0000, -53.957
 824.2000, -53.808
 824.4000, -54.097
 824.6000, -54.257
 824.8000, -54.529
 825.0000, -55.052
 825.2000, -55.370
 825.4000, -55.855
 825.6000, -56.209
 825.8000, -56.650
 826.0000, -56.888
 826.2000, -56.844
 826.4000, -56.860
 826.6000, -56.547
 826.8000, -56.305
 827.0000, -55.988
 827.2000, -55.585
 827.4000, -55.141
 827.6000, -54.876
 827.8000, -54.670
 828.0000, -54.288
 828.2000, -54.301
 828.4000, -54.012
 828.6000, -54.031
 828.8000, -53.962
 829.0000, -54.099
 829.2000, -54.167
 829.4000, -54.309
 829.6000, -54.590
 829.8000, -54.816
 830.0000, -55.152
 830.2000, -55.344
 830.4000, -55.681
 830.6000, -56.126
 830.8000, -56.325
 831.0000, -56.672
 831.2000, -56.947
 831.4000, -57.298
 831.6000, -57.510
 831.8000, -57.545
 832.0000, -57.511
 832.2000, -57.714
 832.4000, -57.641
 832.6000, -57.599
 832.8000, -57.372
 833.0000, -57.183
 833.2000, -56.938
 833.4000, -56.713
 833.6000, -56.654
 833.8000, -56.381
 834.0000, -56.086
 834.2000, -55.871
 834.4000, -55.763
 834.6000, -55.595
 834.8000, -55.407
 835.0000, -55.135
 835.2000, -55.090
 835.4000, -54.957
 835.6000, -54.828
 835.8000, -54.950
 836.0000, -54.540
 836.2000, -54.701
 836.4000, -54.607
 836.6000, -54.425
 836.8000, -54.375
 837.0000, -54.430
 837.2000, -54.293
 837.4000, -54.409
 837.6000, -54.441
 837.8000, -54.342
 838.0000, -54.358
 838.2000, -54.287
 838.4000, -54.384
 838.6000, -54.389
 838.8000, -54.426
 839.0000, -54.358
 839.2000, -54.350
 839.4000, -54.460
 839.6000, -54.333
 839.8000, -54.393
 840.0000, -54.280
 840.2000, -54.508
 840.4000, -54.473
 840.6000, -54.379
 840.8000, -54.400
 841.0000, -54.421
 841.2000, -54.397
 841.4000, -54.387
 841.6000, -54.497
 841.8000, -54.442
 842.0000, -54.567
 842.2000, -54.551
 842.4000, -54.520
 842.6000, -54.578
 842.8000, -54.567
 843.0000, -54.577
 843.2000, -54.618
 843.4000, -54.772
 843.6000, -54.711
 843.8000, -54.877
 844.0000, -54.959
 844.2000, -55.000
 844.4000, -55.026
 844.6000, -55.059
 844.8000, -55.167
 845.0000, -55.158
 845.2000, -55.323
 845.4000, -55.561
 845.6000, -55.604
 845.8000, -55.801
 846.0000, -55.831
 846.2000, -56.156
 846.4000, -56.312
 846.6000, -56.652
 846.8000, -56.606
 847.0000, -57.062
 847.2000, -57.137
 847.4000, -57.524
 847.6000, -57.774
 847.8000, -57.856
 848.0000, -58.337
 848.2000, -58.117
 848.4000, -58.476
 848.6000, -58.555
 848.8000, -58.627
 849.0000, -58.646
 849.2000, -58.708
 849.4000, -58.609
 849.6000, -58.422
 849.8000, -58.148
 850.0000, -58.094
 850.2000, -57.591
 850.4000, -57.479
 850.6000, -57.124
 850.8000, -56.625
 851.0000, -56.516
 851.2000, -56.170
 851.4000, -55.973
 851.6000, -55.634
 851.8000, -55.562
 852.0000, -55.418
 852.2000, -55.454
 852.4000, -55.382
 852.6000, -55.302
 852.8000, -55.243
 853.0000, -55.467
 853.2000, -55.475
 853.4000, -55.801
 853.6000, -56.051
 853.8000, -56.386
 854.0000, -56.642
 854.2000, -57.008
 854.4000, -57.330
 854.6000, -57.698
 854.8000, -58.162
 855.0000, -58.372
 855.2000, -58.518
 855.4000, -58.499
 855.6000, -58.481
 855.8000, -58.322
 856.0000, -58.004
 856.2000, -57.710
 856.4000, -57.414
 856.6000, -57.006
 856.8000, -56.565
 857.0000, -56.352
 857.2000, -55.936
 857.4000, -55.964
 857.6000, -55.847
 857.8000, -55.668
 858.0000, -55.774
 858.2000, -55.870
 858.4000, -56.142
 858.6000, -56.296
 858.8000, -56.724
 859.0000, -57.169
 859.2000, -57.520
 859.4000, -57.864
 859.6000, -58.169
 859.8000, -58.394
 860.0000, -58.317
 860.2000, -58.233
 860.4000, -58.049
 860.6000, -57.826
 860.8000, -57.466
 861.0000, -57.022
 861.2000, -56.664
 861.4000, -56.502
 861.6000, -56.248
 861.8000, -56.092
 862.0000, -56.203
 862.2000, -56.336
 862.4000, -56.424
 862.6000, -56.622
 862.8000, -57.176
 863.0000, -57.395
 863.2000, -57.777
 863.4000, -58.096
 863.6000, -58.249
 863.8000, -58.098
 864.0000, -58.205
 864.2000, -58.001
 864.4000, -57.419
 864.6000, -57.177
 864.8000, -56.905
 865.0000, -56.563
 865.2000, -56.423
 865.4000, -56.471
 865.6000, -56.498
 865.8000, -56.832
 866.0000, -56.987
 866.2000, -57.170
 866.4000, -57.545
 866.6000, -57.834
 866.8000, -58.055
 867.0000, -57.992
 867.2000, -58.157
 867.4000, -57.865
 867.6000, -57.575
 867.8000, -57.152
 868.0000, -57.167
 868.2000, -57.114
 868.4000, -56.954
 868.6000, -56.797
 868.8000, -56.979
 869.0000, -57.053
 869.2000, -57.226
 869.4000, -57.608
 869.6000, -57.867
 869.8000, -57.944
 870.0000, -57.930
 870.2000, -57.812
 870.4000, -57.770
 870.6000, -57.717
 870.8000, -57.608
 871.0000, -57.339
 871.2000, -57.183
 871.4000, -57.207
 871.6000, -57.123
 871.8000, -57.426
 872.0000, -57.480
 872.2000, -57.670
 872.4000, -57.693
 872.6000, -57.934
 872.8000, -58.001
 873.0000, -57.847
 873.2000, -57.797
 873.4000, -57.613
 873.6000, -57.394
 873.8000, -57.398
 874.0000, -57.307
 874.2000, -57.500
 874.4000, -57.461
 874.6000, -57.592
 874.8000, -57.515
 875.0000, -57.610
 875.2000, -57.696
 875.4000, -57.798
 875.6000, -57.702
 875.8000, -57.765
 876.0000, -57.743
 876.2000, -57.821
 876.4000, -57.681
 876.6000, -57.517
 876.8000, -57.727
 877.0000, -57.628
 877.2000, -57.641
 877.4000, -57.888
 877.6000, -57.628
 877.8000, -57.735
 878.0000, -57.627
 878.2000, -57.773
 878.4000, -57.808
 878.6000, -57.839
 878.8000, -57.917
 879.0000, -57.899
 879.2000, -57.930
 879.4000, -57.836
 879.6000, -57.841
 879.8000, -57.763
 880.0000, -57.617
 880.2000, -57.788
 880.4000, -57.630
 880.6000, -58.009
 880.8000, -57.997
 881.0000, -57.970
 881.2000, -57.972
 881.4000, -58.146
 881.6000, -57.998
 881.8000, -57.891
 882.0000, -57.763
 882.2000, -57.846
 882.4000, -57.742
 882.6000, -57.678
 882.8000, -57.929
 883.0000, -58.084
 883.2000, -58.233
 883.4000, -58.261
 883.6000, -58.271
 883.8000, -58.245
 884.0000, -57.930
 884.2000, -57.810
 884.4000, -57.619
 884.6000, -57.564
 884.8000, -57.964
 885.0000, -58.068
 885.2000, -58.110
 885.4000, -58.414
 885.6000, -58.399
 885.8000, -58.463
 886.0000, -58.176
 886.2000, -57.986
 886.4000, -57.695
 886.6000, -57.651
 886.8000, -57.644
 887.0000, -57.978
 887.2000, -58.307
 887.4000, -58.535
 887.6000, -58.592
 887.8000, -58.448
 888.0000, -57.999
 888.2000, -57.842
 888.4000, -57.692
 888.6000, -57.590
 888.8000, -57.792
 889.0000, -57.871
 889.2000, -58.461
 889.4000, -58.754
 889.6000, -58.645
 889.8000, -58.614
 890.0000, -58.294
 890.2000, -57.878
 890.4000, -57.623
 890.6000, -57.645
 890.8000, -57.939
 891.0000, -58.225
 891.2000, -58.636
 891.4000, -58.948
 891.6000, -58.911
 891.8000, -58.576
 892.0000, -57.976
 892.2000, -57.684
 892.4000, -57.536
 892.6000, -57.696
 892.8000, -58.054
 893.0000, -58.650
 893.2000, -59.065
 893.4000, -58.882
 893.6000, -58.554
 893.8000, -58.221
 894.0000, -57.816
 894.2000, -57.606
 894.4000, -57.745
 894.6000, -58.097
 894.8000, -58.558
 895.0000, -58.931
 895.2000, -59.207
 895.4000, -58.930
 895.6000, -58.375
 895.8000, -57.910
 896.0000, -57.625
 896.2000, -57.743
 896.4000, -58.255
 896.6000, -58.910
 896.8000, -59.335
 897.0000, -59.185
 897.2000, -58.926
 897.4000, -58.255
 897.6000, -57.971
 897.8000, -57.675
 898.0000, -57.856
 898.2000, -58.397
 898.4000, -59.093
 898.6000, -59.306
 898.8000, -59.400
 899.0000, -58.891
 899.2000, -58.253
 899.4000, -57.834
 899.6000, -57.809
 899.8000, -58.232
 900.0000, -58.628
 900.2000, -59.255
 900.4000, -59.371
 900.6000, -58.920
 900.8000, -58.479
 901.0000, -58.110
 901.2000, -57.720
 901.4000, -57.978
 901.6000, -58.380
 901.8000, -59.113
 902.0000, -59.545
 902.2000, -59.413
 902.4000, -58.708
 902.6000, -58.265
 902.8000, -57.785
 903.0000, -57.736
 903.2000, -58.450
 903.4000, -58.884
 903.6000, -59.341
 903.8000, -59.401
 904.0000, -59.035
 904.2000, -58.275
 904.4000, -57.963
 904.6000, -57.895
 904.8000, -58.291
 905.0000, -58.939
 905.2000, -59.403
 905.4000, -59.526
 905.6000, -59.160
 905.8000, -58.488
 906.0000, -58.107
 906.2000, -57.970
 906.4000, -58.145
 906.6000, -58.775
 906.8000, -59.608
 907.0000, -59.628
 907.2000, -59.177
 907.4000, -58.567
 907.6000, -57.864
 907.8000, -57.901
 908.0000, -58.250
 908.2000, -59.260
 908.4000, -59.660
 908.6000, -59.711
 908.8000, -59.414
 909.0000, -58.757
 909.2000, -58.121
 909.4000, -57.951
 909.6000, -58.558
 909.8000, -59.238
 910.0000, -59.717
 910.2000, -59.830
 910.4000, -59.057
 910.6000, -58.470
 910.8000, -57.967
 911.0000, -58.222
 911.2000, -58.696
 911.4000, -59.205
 911.6000, -59.767
 911.8000, -59.530
 912.0000, -58.915
 912.2000, -58.133
 912.4000, -58.349
 912.6000, -58.327
 912.8000, -58.979
 913.0000, -59.636
 913.2000, -59.648
 913.4000, -59.147
 913.6000, -58.664
 913.8000, -58.162
 914.0000, -58.113
 914.2000, -58.779
 914.4000, -59.598
 914.6000, -59.745
 914.8000, -59.658
 915.0000, -59.049
 915.2000, -58.276
 915.4000, -58.161
 915.6000, -58.424
 915.8000, -59.038
 916.0000, -59.749
 916.2000, -59.925
 916.4000, -59.446
 916.6000, -58.686
 916.8000, -58.188
 917.0000, -58.322
 917.2000, -58.933
 917.4000, -59.392
 917.6000, -59.778
 917.8000, -59.720
 918.0000, -58.813
 918.2000, -58.469
 918.4000, -58.349
 918.6000, -58.745
 918.8000, -59.383
 919.0000, -59.851
 919.2000, -59.649
 919.4000, -59.105
 919.6000, -58.734
 919.8000, -58.510
 920.0000, -58.619
 920.2000, -59.219
 920.4000, -59.778
 920.6000, -59.821
 920.8000, -59.188
 921.0000, -58.646
 921.2000, -58.370
 921.4000, -58.509
 921.6000, -59.157
 921.8000, -59.732
 922.0000, -59.788
 922.2000, -59.471
 922.4000, -58.720
 922.6000, -58.430
 922.8000, -58.695
 923.0000, -59.115
 923.2000, -59.854
 923.4000, -59.853
 923.6000, -59.476
 923.8000, -59.086
 924.0000, -58.564
 924.2000, -58.898
 924.4000, -59.195
 924.6000, -59.796
 924.8000, -59.880
 925.0000, -59.502
 925.2000, -58.973
 925.4000, -58.744
 925.6000, -58.855
 925.8000, -59.311
 926.0000, -59.910
 926.2000, -59.978
 926.4000, -59.529
 926.6000, -58.957
 926.8000, -58.901
 927.0000, -58.910
 927.2000, -59.478
 927.4000, -59.762
 927.6000, -59.908
 927.8000, -59.586
 928.0000, -59.035
 928.2000, -58.772
 928.4000, -58.993
 928.6000, -59.303
 928.8000, -59.867
 929.0000, -60.055
 929.2000, -59.650
 929.4000, -59.070
 929.6000, -58.942
 929.8000, -59.079
 930.0000, -59.593
 930.2000, -59.964
 930.4000, -59.926
 930.6000, -59.334
 930.8000, -59.040
 931.0000, -58.987
 931.2000, -59.308
 931.4000, -59.844
 931.6000, -60.000
 931.8000, -59.896
 932.0000, -59.345
 932.2000, -59.111
 932.4000, -59.246
 932.6000, -59.337
 932.8000, -60.028
 933.0000, -60.053
 933.2000, -60.043
 933.4000, -59.449
 933.6000, -59.231
 933.8000, -59.234
 934.0000, -59.797
 934.2000, -60.088
 934.4000, -60.224
 934.6000, -59.878
 934.8000, -59.423
 935.0000, -59.206
 935.2000, -59.489
 935.4000, -59.858
 935.6000, -60.150
 935.8000, -60.057
 936.0000, -59.608
 936.2000, -59.349
 936.4000, -59.476
 936.6000, -59.748
 936.8000, -60.042
 937.0000, -60.114
 937.2000, -60.054
 937.4000, -59.701
 937.6000, -59.360
 937.8000, -59.579
 938.0000, -60.012
 938.2000, -60.042
 938.4000, -60.237
 938.6000, -59.788
 938.8000, -59.654
 939.0000, -59.493
 939.2000, -59.740
 939.4000, -60.196
 939.6000, -60.337
 939.8000, -60.173
 940.0000, -59.785
 940.2000, -59.720
 940.4000, -59.689
 940.6000, -60.032
 940.8000, -60.115
 941.0000, -60.379
 941.2000, -59.952
 941.4000, -59.843
 941.6000, -59.746
 941.8000, -59.964
 942.0000, -60.319
 942.2000, -60.198
 942.4000, -60.302
 942.6000, -59.951
 942.8000, -59.909
 943.0000, -60.003
 943.2000, -60.062
 943.4000, -60.291
 943.6000, -60.394
 943.8000, -60.122
 944.0000, -59.862
 944.2000, -59.918
 944.4000, -60.243
 944.6000, -60.316
 944.8000, -60.464
 945.0000, -60.275
 945.2000, -60.139
 945.4000, -59.970
 945.6000, -60.082
 945.8000, -60.359
 946.0000, -60.284
 946.2000, -60.229
 946.4000, -60.212
 946.6000, -60.162
 946.8000, -60.287
 947.0000, -60.174
 947.2000, -60.247
 947.4000, -60.237
 947.6000, -60.240
 947.8000, -60.258
 948.0000, -60.294
 948.2000, -60.325
 948.4000, -60.433
 948.6000, -60.494
 948.8000, -60.287
 949.0000, -60.367
 949.2000, -60.369
 949.4000, -60.280
 949.6000, -60.288
 949.8000, -60.555
 950.0000, -60.633
 950.2000, -60.359
 950.4000, -60.397
 950.6000, -60.403
 950.8000, -60.427
 951.0000, -60.400
 951.2000, -60.360
 951.4000, -60.356
 951.6000, -60.445
 951.8000, -60.244
 952.0000, -60.329
 952.2000, -60.570
 952.4000, -60.612
 952.6000, -60.353
 952.8000, -60.362
 953.0000, -60.652
 953.2000, -60.574
 953.4000, -60.503
 953.6000, -60.682
 953.8000, -60.594
 954.0000, -60.622
 954.2000, -60.747
 954.4000, -60.545
 954.6000, -60.517
 954.8000, -60.681
 955.0000, -60.715
 955.2000, -60.746
 955.4000, -60.681
 955.6000, -60.765
 955.8000, -60.807
 956.0000, -60.705
 956.2000, -60.881
 956.4000, -60.797
 956.6000, -60.866
 956.8000, -60.785
 957.0000, -60.742
 957.2000, -60.784
 957.4000, -60.720
 957.6000, -60.964
 957.8000, -60.835
 958.0000, -60.909
 958.2000, -60.626
 958.4000, -60.760
 958.6000, -60.834
 958.8000, -60.979
 959.0000, -60.844
 959.2000, -60.793
 959.4000, -60.842
 959.6000, -60.776
 959.8000, -60.762
 960.0000, -60.943
 960.2000, -60.813
 960.4000, -60.937
 960.6000, -60.828
 960.8000, -60.746
 961.0000, -61.061
 961.2000, -60.905
 961.4000, -60.884
 961.6000, -61.170
 961.8000, -60.821
 962.0000, -60.933
 962.2000, -60.789
 962.4000, -60.854
 962.6000, -61.190
 962.8000, -61.331
 963.0000, -60.974
 963.2000, -60.726
 963.4000, -60.582
 963.6000, -60.752
 963.8000, -60.996
 964.0000, -61.145
 964.2000, -60.877
 964.4000, -60.793
 964.6000, -60.953
 964.8000, -60.933
 965.0000, -61.175
 965.2000, -61.126
 965.4000, -61.255
 965.6000, -61.020
 965.8000, -60.915
 966.0000, -60.991
 966.2000, -61.384
 966.4000, -61.171
 966.6000, -61.028
 966.8000, -61.017
 967.0000, -60.952
 967.2000, -61.005
 967.4000, -61.125
 967.6000, -61.361
 967.8000, -61.214
 968.0000, -61.056
 968.2000, -61.150
 968.4000, -61.318
 968.6000, -61.287
 968.8000, -61.198
 969.0000, -61.073
 969.2000, -61.136
 969.4000, -61.165
 969.6000, -61.189
 969.8000, -61.442
 970.0000, -61.506
 970.2000, -61.282
 970.4000, -61.278
 970.6000, -61.224
 970.8000, -61.536
 971.0000, -61.527
 971.2000, -61.631
 971.4000, -61.375
 971.6000, -61.341
 971.8000, -61.367
 972.0000, -61.612
 972.2000, -61.702
 972.4000, -61.897
 972.6000, -61.573
 972.8000, -61.362
 973.0000, -61.493
 973.2000, -61.583
 973.4000, -61.537
 973.6000, -61.706
 973.8000, -61.766
 974.0000, -61.577
 974.2000, -61.639
 974.4000, -61.791
 974.6000, -62.038
 974.8000, -61.992
 975.0000, -61.865
 975.2000, -61.703
 975.4000, -61.707
 975.6000, -61.994
 975.8000, -62.173
 976.0000, -62.194
 976.2000, -61.989
 976.4000, -62.002
 976.6000, -61.847
 976.8000, -62.215
 977.0000, -62.606
 977.2000, -62.438
 977.4000, -62.223
 977.6000, -62.085
 977.8000, -61.993
 978.0000, -62.463
 978.2000, -62.538
 978.4000, -62.644
 978.6000, -62.332
 978.8000, -62.161
 979.0000, -62.346
 979.2000, -62.529
 979.4000, -62.652
 979.6000, -62.579
 979.8000, -62.385
 980.0000, -62.184
 980.2000, -62.400
 980.4000, -62.689
 980.6000, -62.991
 980.8000, -62.624
 981.0000, -62.339
 981.2000, -62.318
 981.4000, -62.307
 981.6000, -62.587
 981.8000, -62.696
 982.0000, -62.595
 982.2000, -62.306
 982.4000, -62.303
 982.6000, -62.449
 982.8000, -62.614
 983.0000, -62.580
 983.2000, -62.156
 983.4000, -62.241
 983.6000, -62.073
 983.8000, -62.286
 984.0000, -62.570
 984.2000, -62.739
 984.4000, -62.182
 984.6000, -62.147
 984.8000, -62.064
 985.0000, -62.338
 985.2000, -62.378
 985.4000, -62.405
 985.6000, -62.241
 985.8000, -62.045
 986.0000, -62.034
 986.2000, -62.131
 986.4000, -62.223
 986.6000, -62.386
 986.8000, -62.143
 987.0000, -62.131
 987.2000, -61.992
 987.4000, -62.242
 987.6000, -62.471
 987.8000, -62.375
 988.0000, -62.061
 988.2000, -61.963
 988.4000, -61.962
 988.6000, -62.064
 988.8000, -62.389
 989.0000, -62.231
 989.2000, -61.945
 989.4000, -61.955
 989.6000, -62.064
 989.8000, -62.339
 990.0000, -62.435
 990.2000, -62.181
 990.4000, -61.994
 990.6000, -61.827
 990.8000, -62.289
 991.0000, -62.470
 991.2000, -62.410
 991.4000, -62.155
 991.6000, -61.661
 991.8000, -61.822
 992.0000, -62.157
 992.2000, -62.342
 992.4000, -62.106
 992.6000, -62.233
 992.8000, -61.934
 993.0000, -61.763
 993.2000, -62.047
 993.4000, -62.146
 993.6000, -62.316
 993.8000, -62.298
 994.0000, -61.972
 994.2000, -62.133
 994.4000, -62.128
 994.6000, -62.373
 994.8000, -62.629
 995.0000, -62.038
 995.2000, -62.118
 995.4000, -62.125
 995.6000, -62.422
 995.8000, -62.377
 996.0000, -62.316
 996.2000, -62.149
 996.4000, -61.959
 996.6000, -62.152
 996.8000, -62.508
 997.0000, -62.541
 997.2000, -62.520
 997.4000, -62.197
 997.6000, -62.248
 997.8000, -62.323
 998.0000, -62.530
 998.2000, -62.797
 998.4000, -62.413
 998.6000, -62.446
 998.8000, -62.478
 999.0000, -62.624
 999.2000, -62.914
 999.4000, -62.794
 999.6000, -62.798
 999.8000, -62.381
1000.0000, -62.416
1000.2000, -62.682
1000.4000, -62.936
1000.6000, -62.870
1000.8000, -62.597
1001.0000, -62.352
1001.2000, -62.332
1001.4000, -62.740
1001.6000, -63.266
1001.8000, -62.897
1002.0000, -62.793
1002.2000, -62.471
1002.4000, -62.520
1002.6000, -62.785
1002.8000, -62.739
1003.0000, -62.814
1003.2000, -62.510
1003.4000, -62.609
1003.6000, -62.729
1003.8000, -62.665
1004.0000, -62.667
1004.2000, -62.769
1004.4000, -62.574
1004.6000, -62.365
1004.8000, -62.510
1005.0000, -62.877
1005.2000, -62.928
1005.4000, -62.801
1005.6000, -62.409
1005.8000, -62.580
1006.0000, -62.916
1006.2000, -63.114
1006.4000, -63.046
1006.6000, -62.961
1006.8000, -62.800
1007.0000, -62.880
1007.2000, -63.069
1007.4000, -63.298
1007.6000, -63.146
1007.8000, -63.197
1008.0000, -63.112
1008.2000, -63.255
1008.4000, -63.387
1008.6000, -63.679
1008.8000, -63.612
1009.0000, -63.381
1009.2000, -63.482
1009.4000, -63.693
1009.6000, -63.977
1009.8000, -64.084
1010.0000, -64.104
1010.2000, -63.978
1010.4000, -63.973
1010.6000, -63.936
1010.8000, -64.220
1011.0000, -64.318
1011.2000, -64.303
1011.4000, -64.193
1011.6000, -64.108
1011.8000, -64.155
1012.0000, -64.413
1012.2000, -64.561
1012.4000, -64.102
1012.6000, -64.048
1012.8000, -63.973
1013.0000, -64.024
1013.2000, -64.306
1013.4000, -64.083
1013.6000, -64.079
1013.8000, -63.988
1014.0000, -64.029
1014.2000, -63.972
1014.4000, -64.102
1014.6000, -63.998
1014.8000, -63.889
1015.0000, -63.844
1015.2000, -63.772
1015.4000, -63.824
1015.6000, -63.995
1015.8000, -63.998
1016.0000, -63.700
1016.2000, -63.452
1016.4000, -63.553
1016.6000, -63.687
1016.8000, -63.797
1017.0000, -63.719
1017.2000, -63.463
1017.4000, -63.417
1017.6000, -63.461
1017.8000, -63.428
1018.0000, -63.626
1018.2000, -63.184
1018.4000, -63.228
1018.6000, -63.116
1018.8000, -63.142
1019.0000, -63.313
1019.2000, -63.103
1019.4000, -62.987
1019.6000, -62.903
1019.8000, -62.661
1020.0000, -62.847
1020.2000, -62.915
1020.4000, -62.617
1020.6000, -62.741
1020.8000, -62.334
1021.0000, -62.478
1021.2000, -62.525
1021.4000, -62.628
1021.6000, -62.550
1021.8000, -62.461
1022.0000, -62.171
1022.2000, -62.198
1022.4000, -62.397
1022.6000, -62.355
1022.8000, -62.225
1023.0000, -62.092
1023.2000, -62.063
1023.4000, -61.956
1023.6000, -62.113
1023.8000, -61.949
1024.0000, -61.816
1024.2000, -61.779
1024.4000, -61.746
1024.6000, -61.656
1024.8000, -61.915
1025.0000, -61.647
1025.2000, -61.589
1025.4000, -61.405
1025.6000, -61.556
1025.8000, -61.440
1026.0000, -61.266
1026.2000, -61.303
1026.4000, -61.274
1026.6000, -61.188
1026.8000, -61.070
1027.0000, -61.114
1027.2000, -61.225
1027.4000, -60.942
1027.6000, -61.074
1027.8000, -61.108
1028.0000, -60.963
1028.2000, -60.962
1028.4000, -60.934
1028.6000, -60.729
1028.8000, -60.794
1029.0000, -60.619
1029.2000, -60.639
1029.4000, -60.421
1029.6000, -60.523
1029.8000, -60.371
1030.0000, -60.551
1030.2000, -60.691
1030.4000, -60.559
1030.6000, -60.625
1030.8000, -60.495
1031.0000, -60.402
1031.2000, -60.564
1031.4000, -60.449
1031.6000, -60.333
1031.8000, -60.290
1032.0000, -60.432
1032.2000, -60.379
1032.4000, -60.313
1032.6000, -60.236
1032.8000, -60.209
1033.0000, -60.051
1033.2000, -60.094
1033.4000, -60.189
1033.6000, -60.059
1033.8000, -60.279
1034.0000, -60.087
1034.2000, -59.855
1034.4000, -59.874
1034.6000, -60.010
1034.8000, -60.093
1035.0000, -59.979
1035.2000, -59.871
1035.4000, -59.716
1035.6000, -59.774
1035.8000, -59.698
1036.0000, -60.002
1036.2000, -59.891
1036.4000, -59.769
1036.6000, -59.683
1036.8000, -59.623
1037.0000, -59.741
1037.2000, -59.692
1037.4000, -59.756
1037.6000, -59.833
1037.8000, -59.668
1038.0000, -59.666
1038.2000, -59.966
1038.4000, -60.084
1038.6000, -59.904
1038.8000, -59.758
1039.0000, -59.752
1039.2000, -59.744
1039.4000, -59.812
1039.6000, -60.066
1039.8000, -59.906
1040.0000, -59.937
1040.2000, -59.720
1040.4000, -59.656
1040.6000, -59.922
1040.8000, -60.167
1041.0000, -59.996
1041.2000, -59.946
1041.4000, -59.556
1041.6000, -59.802
1041.8000, -60.184
1042.0000, -60.106
1042.2000, -60.041
1042.4000, -59.758
1042.6000, -59.655
1042.8000, -59.837
1043.0000, -60.194
1043.2000, -60.098
1043.4000, -59.948
1043.6000, -59.675
1043.8000, -59.647
1044.0000, -59.942
1044.2000, -59.946
1044.4000, -60.172
1044.6000, -59.876
1044.8000, -59.666
1045.0000, -59.600
1045.2000, -59.679
1045.4000, -60.043
1045.6000, -60.192
1045.8000, -59.737
1046.0000, -59.407
1046.2000, -59.423
1046.4000, -59.564
1046.6000, -59.914
1046.8000, -59.782
1047.0000, -59.619
1047.2000, -59.107
1047.4000, -58.836
1047.6000, -59.264
1047.8000, -59.196
1048.0000, -59.109
1048.2000, -58.550
1048.4000, -58.122
1048.6000, -58.509
1048.8000, -58.426
1049.0000, -58.431
1049.2000, -58.432
1049.4000, -57.999
1049.6000, -57.648
1049.8000, -57.579
1050.0000, -57.892
1050.2000, -57.910
1050.4000, -58.375
1050.6000, -57.785
1050.8000, -57.458
1051.0000, -57.299
1051.2000, -57.916
1051.4000, -58.164
1051.6000, -58.326
1051.8000, -58.061
1052.0000, -57.850
1052.2000, -57.596
1052.4000, -58.144
1052.6000, -58.548
1052.8000, -58.875
1053.0000, -58.627
1053.2000, -58.204
1053.4000, -58.205
1053.6000, -58.453
1053.8000, -58.914
1054.0000, -59.107
1054.2000, -59.139
1054.4000, -58.939
1054.6000, -58.681
1054.8000, -59.018
1055.0000, -59.490
1055.2000, -59.617
1055.4000, -59.523
1055.6000, -59.103
1055.8000, -59.068
1056.0000, -59.141
1056.2000, -59.489
1056.4000, -59.754
1056.6000, -59.628
1056.8000, -59.317
1057.0000, -58.830
1057.2000, -59.035
1057.4000, -59.587
1057.6000, -59.911
1057.8000, -59.441
1058.0000, -58.980
1058.2000, -58.721
1058.4000, -58.993
1058.6000, -59.282
1058.8000, -59.646
1059.0000, -59.025
1059.2000, -58.515
1059.4000, -58.302
1059.6000, -58.521
1059.8000, -58.837
1060.0000, -59.041
1060.2000, -58.657
1060.4000, -58.108
1060.6000, -57.512
1060.8000, -57.443
1061.0000, -57.877
1061.2000, -58.061
1061.4000, -57.862
1061.6000, -57.431
1061.8000, -57.021
1062.0000, -57.045
1062.2000, -57.242
1062.4000, -57.597
1062.6000, -57.188
1062.8000, -56.262
1063.0000, -55.605
1063.2000, -55.282
1063.4000, -55.628
1063.6000, -52.867
1063.8000, -35.560
1064.0000, -31.040
1064.2000, -29.366
1064.4000, -29.395
1064.6000, -29.389
1064.8000, -29.989
1065.0000, -33.471
1065.2000, -46.945
1065.4000, -55.364
1065.6000, -56.018
1065.8000, -56.399
1066.0000, -57.342
1066.2000, -57.074
1066.4000, -57.236
1066.6000, -56.445
1066.8000, -56.444
1067.0000, -56.305
1067.2000, -57.034
1067.4000, -57.132
1067.6000, -57.275
1067.8000, -56.839
1068.0000, -56.286
1068.2000, -56.617
1068.4000, -57.100
1068.6000, -57.599
1068.8000, -57.614
1069.0000, -57.345
1069.2000, -56.811
1069.4000, -56.968
1069.6000, -57.374
1069.8000, -57.998
1070.0000, -57.924
1070.2000, -57.577
1070.4000, -57.062
1070.6000, -57.034
1070.8000, -57.537
1071.0000, -58.107
1071.2000, -58.108
1071.4000, -57.569
1071.6000, -57.018
1071.8000, -56.980
1072.0000, -57.375
1072.2000, -57.951
1072.4000, -58.042
1072.6000, -57.706
1072.8000, -57.250
1073.0000, -56.809
1073.2000, -57.073
1073.4000, -57.540
1073.6000, -57.803
1073.8000, -57.533
1074.0000, -56.938
1074.2000, -56.590
1074.4000, -56.626
1074.6000, -57.102
1074.8000, -57.556
1075.0000, -57.388
1075.2000, -56.781
1075.4000, -56.144
1075.6000, -55.993
1075.8000, -56.321
1076.0000, -56.714
1076.2000, -56.610
1076.4000, -56.038
1076.6000, -55.408
1076.8000, -55.411
1077.0000, -55.640
1077.2000, -55.928
1077.4000, -56.192
1077.6000, -55.796
1077.8000, -54.892
1078.0000, -54.716
1078.2000, -54.949
1078.4000, -55.051
1078.6000, -55.500
1078.8000, -55.340
1079.0000, -54.568
1079.2000, -54.362
1079.4000, -54.171
1079.6000, -54.381
1079.8000, -55.072
1080.0000, -55.259
1080.2000, -54.323
1080.4000, -53.983
1080.6000, -53.597
1080.8000, -54.161
1081.0000, -55.078
1081.2000, -55.007
1081.4000, -54.717
1081.6000, -54.369
1081.8000, -54.218
1082.0000, -54.136
1082.2000, -54.768
1082.4000, -55.363
1082.6000, -55.504
1082.8000, -54.842
1083.0000, -54.452
1083.2000, -54.505
1083.4000, -55.144
1083.6000, -55.598
1083.8000, -55.888
1084.0000, -55.137
1084.2000, -55.246
1084.4000, -55.211
1084.6000, -55.481
1084.8000, -56.107
1085.0000, -56.442
1085.2000, -56.252
1085.4000, -55.934
1085.6000, -55.537
1085.8000, -55.693
1086.0000, -56.387
1086.2000, -56.589
1086.4000, -56.760
1086.6000, -56.345
1086.8000, -56.172
1087.0000, -56.171
1087.2000, -56.500
1087.4000, -56.496
1087.6000, -57.040
1087.8000, -56.734
1088.0000, -56.393
1088.2000, -56.242
1088.4000, -56.256
1088.6000, -56.606
1088.8000, -56.850
1089.0000, -56.917
1089.2000, -56.603
1089.4000, -56.281
1089.6000, -56.084
1089.8000, -56.291
1090.0000, -56.731
1090.2000, -56.899
1090.4000, -56.575
1090.6000, -56.149
1090.8000, -56.235
1091.0000, -56.137
1091.2000, -56.410
1091.4000, -56.503
1091.6000, -56.527
1091.8000, -56.311
1092.0000, -56.024
1092.2000, -56.059
1092.4000, -56.073
1092.6000, -56.369
1092.8000, -56.418
1093.0000, -56.118
1093.2000, -55.883
1093.4000, -55.837
1093.6000, -55.849
1093.8000, -56.239
1094.0000, -56.154
1094.2000, -56.171
1094.4000, -55.915
1094.6000, -55.618
1094.8000, -55.632
1095.0000, -55.707
1095.2000, -55.935
1095.4000, -56.090
1095.6000, -55.895
1095.8000, -55.494
1096.0000, -55.587
1096.2000, -55.577
1096.4000, -55.773
1096.6000, -55.791
1096.8000, -55.666
1097.0000, -55.312
1097.2000, -55.409
1097.4000, -55.322
1097.6000, -55.678
1097.8000, -55.497
1098.0000, -55.612
1098.2000, -55.473
1098.4000, -55.031
1098.6000, -55.289
1098.8000, -55.183
1099.0000, -55.313
1099.2000, -55.508
1099.4000, -55.436
1099.6000, -55.200
1099.8000, -55.126
1100.0000, -55.259
1100.2000, -55.367
1100.4000, -55.278
1100.6000, -55.267
1100.8000, -55.109
1101.0000, -55.216
1101.2000, -55.013
1101.4000, -55.188
1101.6000, -54.929
1101.8000, -55.296
1102.0000, -55.151
1102.2000, -55.260
1102.4000, -55.175
1102.6000, -55.204
1102.8000, -55.470
1103.0000, -55.373
1103.2000, -55.405
1103.4000, -55.374
1103.6000, -55.347
1103.8000, -55.364
1104.0000, -55.333
1104.2000, -55.435
1104.4000, -55.510
1104.6000, -55.420
1104.8000, -55.277
1105.0000, -55.366
1105.2000, -55.279
1105.4000, -55.428
1105.6000, -55.384
1105.8000, -55.335
1106.0000, -55.240
1106.2000, -55.015
1106.4000, -55.179
1106.6000, -55.234
1106.8000, -55.436
1107.0000, -55.255
1107.2000, -55.243
1107.4000, -54.921
1107.6000, -54.803
1107.8000, -55.013
1108.0000, -55.378
1108.2000, -55.536
1108.4000, -55.111
1108.6000, -54.910
1108.8000, -54.817
1109.0000, -54.852
1109.2000, -55.110
1109.4000, -55.293
1109.6000, -55.245
1109.8000, -55.064
1110.0000, -54.585
1110.2000, -54.665
1110.4000, -54.730
1110.6000, -55.153
1110.8000, -55.561
1111.0000, -55.473
1111.2000, -55.135
1111.4000, -54.739
1111.6000, -54.547
1111.8000, -54.679
1112.0000, -55.167
1112.2000, -55.461
1112.4000, -55.408
1112.6000, -54.900
1112.8000, -54.396
1113.0000, -54.348
1113.2000, -54.797
1113.4000, -55.228
1113.6000, -55.545
1113.8000, -55.330
1114.0000, -54.872
1114.2000, -54.246
1114.4000, -54.218
1114.6000, -54.656
1114.8000, -55.224
1115.0000, -55.597
1115.2000, -55.269
1115.4000, -54.645
1115.6000, -54.349
1115.8000, -54.198
1116.0000, -54.621
1116.2000, -55.306
1116.4000, -55.579
1116.6000, -55.072
1116.8000, -54.616
1117.0000, -54.230
1117.2000, -54.377
1117.4000, -54.840
1117.6000, -55.505
1117.8000, -55.857
1118.0000, -55.423
1118.2000, -54.481
1118.4000, -54.252
1118.6000, -54.466
1118.8000, -54.859
1119.0000, -55.693
1119.2000, -55.833
1119.4000, -55.480
1119.6000, -54.847
1119.8000, -54.461
1120.0000, -54.367
1120.2000, -55.207
1120.4000, -55.920
1120.6000, -56.021
1120.8000, -55.613
1121.0000, -54.670
1121.2000, -54.155
1121.4000, -54.328
1121.6000, -54.902
1121.8000, -55.726
1122.0000, -55.997
1122.2000, -55.618
1122.4000, -54.766
1122.6000, -54.198
1122.8000, -54.378
1123.0000, -55.025
1123.2000, -55.780
1123.4000, -56.186
1123.6000, -55.889
1123.8000, -55.150
1124.0000, -54.435
1124.2000, -54.491
1124.4000, -55.170
1124.6000, -55.907
1124.8000, -56.832
1125.0000, -56.435
1125.2000, -55.377
1125.4000, -54.721
1125.6000, -54.710
1125.8000, -55.480
1126.0000, -56.366
1126.2000, -56.884
1126.4000, -56.641
1126.6000, -55.632
1126.8000, -54.913
1127.0000, -54.650
1127.2000, -55.341
1127.4000, -56.210
1127.6000, -57.236
1127.8000, -57.082
1128.0000, -56.156
1128.2000, -55.157
1128.4000, -54.909
1128.6000, -55.398
1128.8000, -56.224
1129.0000, -57.100
1129.2000, -57.328
1129.4000, -56.421
1129.6000, -55.622
1129.8000, -55.114
1130.0000, -55.383
1130.2000, -56.143
1130.4000, -57.291
1130.6000, -57.544
1130.8000, -56.906
1131.0000, -56.032
1131.2000, -55.326
1131.4000, -55.335
1131.6000, -55.938
1131.8000, -57.132
1132.0000, -57.732
1132.2000, -57.309
1132.4000, -56.216
1132.6000, -55.522
1132.8000, -55.215
1133.0000, -55.747
1133.2000, -56.932
1133.4000, -57.701
1133.6000, -57.708
1133.8000, -56.820
1134.0000, -55.935
1134.2000, -55.351
1134.4000, -55.779
1134.6000, -56.754
1134.8000, -57.771
1135.0000, -58.108
1135.2000, -57.242
1135.4000, -56.100
1135.6000, -55.388
1135.8000, -55.516
1136.0000, -56.568
1136.2000, -57.628
1136.4000, -58.070
1136.6000, -57.716
1136.8000, -56.636
1137.0000, -55.755
1137.2000, -55.551
1137.4000, -56.204
1137.6000, -57.286
1137.8000, -58.225
1138.0000, -58.199
1138.2000, -57.314
1138.4000, -56.291
1138.6000, -55.707
1138.8000, -56.004
1139.0000, -56.914
1139.2000, -57.908
1139.4000, -58.521
1139.6000, -57.969
1139.8000, -56.840
1140.0000, -55.883
1140.2000, -55.898
1140.4000, -56.484
1140.6000, -57.517
1140.8000, -58.424
1141.0000, -58.304
1141.2000, -57.472
1141.4000, -56.202
1141.6000, -55.932
1141.8000, -56.256
1142.0000, -57.196
1142.2000, -58.318
1142.4000, -58.713
1142.6000, -58.037
1142.8000, -56.894
1143.0000, -56.092
1143.2000, -56.078
1143.4000, -56.678
1143.6000, -57.696
1143.8000, -58.618
1144.0000, -58.764
1144.2000, -57.856
1144.4000, -56.789
1144.6000, -56.295
1144.8000, -56.503
1145.0000, -57.289
1145.2000, -58.408
1145.4000, -58.892
1145.6000, -58.285
1145.8000, -57.283
1146.0000, -56.566
1146.2000, -56.250
1146.4000, -56.729
1146.6000, -57.872
1146.8000, -58.818
1147.0000, -59.144
1147.2000, -58.237
1147.4000, -56.945
1147.6000, -56.616
1147.8000, -56.559
1148.0000, -57.270
1148.2000, -58.262
1148.4000, -59.127
1148.6000, -58.814
1148.8000, -57.908
1149.0000, -56.979
1149.2000, -56.506
1149.4000, -56.728
1149.6000, -57.594
1149.8000, -58.635
1150.0000, -58.958
1150.2000, -58.720
1150.4000, -57.522
1150.6000, -56.786
1150.8000, -56.775
1151.0000, -57.084
1151.2000, -57.847
1151.4000, -59.027
1151.6000, -59.123
1151.8000, -58.338
1152.0000, -57.465
1152.2000, -57.004
1152.4000, -56.921
1152.6000, -57.278
1152.8000, -58.243
1153.0000, -59.142
1153.2000, -59.204
1153.4000, -58.145
1153.6000, -57.397
1153.8000, -56.870
1154.0000, -57.091
1154.2000, -57.609
1154.4000, -58.467
1154.6000, -58.864
1154.8000, -58.713
1155.0000, -57.991
1155.2000, -57.122
1155.4000, -57.076
1155.6000, -57.106
1155.8000, -57.677
1156.0000, -58.308
1156.2000, -58.922
1156.4000, -58.604
1156.6000, -58.047
1156.8000, -57.181
1157.0000, -56.950
1157.2000, -57.150
1157.4000, -57.678
1157.6000, -58.434
1157.8000, -58.815
1158.0000, -58.751
1158.2000, -58.088
1158.4000, -57.313
1158.6000, -56.952
1158.8000, -57.382
1159.0000, -57.861
1159.2000, -58.492
1159.4000, -58.803
1159.6000, -58.552
1159.8000, -57.816
1160.0000, -57.304
1160.2000, -57.119
1160.4000, -57.418
1160.6000, -57.976
1160.8000, -58.335
1161.0000, -58.736
1161.2000, -58.465
1161.4000, -57.791
1161.6000, -57.487
1161.8000, -57.222
1162.0000, -57.561
1162.2000, -57.799
1162.4000, -58.352
1162.6000, -58.595
1162.8000, -58.468
1163.0000, -57.988
1163.2000, -57.623
1163.4000, -57.362
1163.6000, -57.453
1163.8000, -57.837
1164.0000, -58.219
1164.2000, -58.466
1164.4000, -58.519
1164.6000, -58.012
1164.8000, -57.663
1165.0000, -57.494
1165.2000, -57.482
1165.4000, -57.713
1165.6000, -58.059
1165.8000, -58.451
1166.0000, -58.547
1166.2000, -58.219
1166.4000, -57.696
1166.6000, -57.595
1166.8000, -57.638
1167.0000, -57.788
1167.2000, -57.971
1167.4000, -58.350
1167.6000, -58.183
1167.8000, -58.114
1168.0000, -57.971
1168.2000, -57.971
1168.4000, -57.899
1168.6000, -57.846
1168.8000, -58.113
1169.0000, -58.409
1169.2000, -58.409
1169.4000, -58.147
1169.6000, -58.107
1169.8000, -57.954
1170.0000, -58.087
1170.2000, -58.063
1170.4000, -58.218
1170.6000, -58.198
1170.8000, -58.237
1171.0000, -58.188
1171.2000, -58.120
1171.4000, -58.252
1171.6000, -58.191
1171.8000, -58.275
1172.0000, -58.293
1172.2000, -58.324
1172.4000, -58.193
1172.6000, -58.118
1172.8000, -58.287
1173.0000, -58.414
1173.2000, -58.295
1173.4000, -58.356
1173.6000, -58.358
1173.8000, -58.360
1174.0000, -58.143
1174.2000, -58.236
1174.4000, -58.242
1174.6000, -58.387
1174.8000, -58.547
1175.0000, -58.582
1175.2000, -58.687
1175.4000, -58.264
1175.6000, -58.159
1175.8000, -58.196
1176.0000, -58.051
1176.2000, -58.361
1176.4000, -58.655
1176.6000, -58.880
1176.8000, -58.765
1177.0000, -58.707
1177.2000, -58.384
1177.4000, -58.204
1177.6000, -58.147
1177.8000, -58.128
1178.0000, -58.599
1178.2000, -59.120
1178.4000, -59.160
1178.6000, -59.182
1178.8000, -58.745
1179.0000, -58.165
1179.2000, -58.133
1179.4000, -58.162
1179.6000, -58.634
1179.8000, -58.878
1180.0000, -59.114
1180.2000, -59.543
1180.4000, -58.963
1180.6000, -58.696
1180.8000, -58.173
1181.0000, -58.115
1181.2000, -58.257
1181.4000, -58.772
1181.6000, -59.382
1181.8000, -59.771
1182.0000, -59.560
1182.2000, -58.990
1182.4000, -58.352
1182.6000, -58.118
1182.8000, -58.086
1183.0000, -58.559
1183.2000, -59.239
1183.4000, -59.745
1183.6000, -59.911
1183.8000, -59.573
1184.0000, -59.070
1184.2000, -58.374
1184.4000, -58.060
1184.6000, -58.232
1184.8000, -58.654
1185.0000, -59.478
1185.2000, -60.146
1185.4000, -60.276
1185.6000, -59.857
1185.8000, -59.040
1186.0000, -58.202
1186.2000, -57.962
1186.4000, -58.325
1186.6000, -59.110
1186.8000, -59.952
1187.0000, -60.487
1187.2000, -60.477
1187.4000, -59.715
1187.6000, -58.759
1187.8000, -58.362
1188.0000, -58.026
1188.2000, -58.480
1188.4000, -59.071
1188.6000, -60.329
1188.8000, -60.863
1189.0000, -60.630
1189.2000, -59.987
1189.4000, -58.796
1189.6000, -58.096
1189.8000, -58.248
1190.0000, -58.472
1190.2000, -59.338
1190.4000, -60.516
1190.6000, -61.162
1190.8000, -60.962
1191.0000, -59.594
1191.2000, -58.993
1191.4000, -58.243
1191.6000, -58.104
1191.8000, -58.618
1192.0000, -59.294
1192.2000, -60.618
1192.4000, -61.615
1192.6000, -61.117
1192.8000, -60.023
1193.0000, -59.071
1193.2000, -58.281
1193.4000, -58.085
1193.6000, -58.477
1193.8000, -59.504
1194.0000, -60.699
1194.2000, -61.566
1194.4000, -61.401
1194.6000, -60.417
1194.8000, -59.168
1195.0000, -58.305
1195.2000, -58.046
1195.4000, -58.469
1195.6000, -59.381
1195.8000, -60.824
1196.0000, -61.841
1196.2000, -61.738
1196.4000, -60.607
1196.6000, -59.295
1196.8000, -58.516
1197.0000, -58.050
1197.2000, -58.475
1197.4000, -59.314
1197.6000, -60.602
1197.8000, -62.013
1198.0000, -62.065
1198.2000, -61.104
1198.4000, -59.746
1198.6000, -58.760
1198.8000, -58.162
1199.0000, -58.443
1199.2000, -59.064
1199.4000, -60.356
1199.6000, -61.845
1199.8000, -62.482
1200.0000, -61.527
1200.2000, -60.251
1200.4000, -59.091
1200.6000, -58.222
1200.8000, -58.279
1201.0000, -58.833
1201.2000, -60.054
1201.4000, -61.705
1201.6000, -62.635
1201.8000, -62.303
1202.0000, -61.204
1202.2000, -59.538
1202.4000, -58.478
1202.6000, -58.528
1202.8000, -58.521
1203.0000, -59.545
1203.2000, -61.000
1203.4000, -62.447
1203.6000, -62.946
1203.8000, -61.494
1204.0000, -59.939
1204.2000, -58.998
1204.4000, -58.348
1204.6000, -58.507
1204.8000, -59.266
1205.0000, -60.379
1205.2000, -62.064
1205.4000, -63.203
1205.6000, -62.768
1205.8000, -61.083
1206.0000, -59.667
1206.2000, -58.661
1206.4000, -58.451
1206.6000, -58.778
1206.8000, -59.670
1207.0000, -61.135
1207.2000, -62.754
1207.4000, -63.386
1207.6000, -62.411
1207.8000, -60.513
1208.0000, -59.171
1208.2000, -58.690
1208.4000, -58.555
1208.6000, -59.123
1208.8000, -60.354
1209.0000, -61.841
1209.2000, -63.322
1209.4000, -63.251
1209.6000, -61.731
1209.8000, -60.217
1210.0000, -59.028
1210.2000, -58.684
1210.4000, -58.840
1210.6000, -59.339
1210.8000, -60.771
1211.0000, -62.441
1211.2000, -63.465
1211.4000, -63.098
1211.6000, -61.252
1211.8000, -59.858
1212.0000, -58.893
1212.2000, -58.650
1212.4000, -59.043
1212.6000, -59.974
1212.8000, -61.145
1213.0000, -62.776
1213.2000, -63.711
1213.4000, -62.646
1213.6000, -60.986
1213.8000, -59.760
1214.0000, -58.967
1214.2000, -58.845
1214.4000, -58.975
1214.6000, -60.060
1214.8000, -61.494
1215.0000, -63.174
1215.2000, -63.601
1215.4000, -62.936
1215.6000, -61.401
1215.8000, -59.785
1216.0000, -59.019
1216.2000, -58.836
1216.4000, -59.192
1216.6000, -60.170
1216.8000, -61.810
1217.0000, -63.170
1217.2000, -63.461
1217.4000, -62.849
1217.6000, -61.038
1217.8000, -59.984
1218.0000, -59.176
1218.2000, -58.959
1218.4000, -59.177
1218.6000, -59.980
1218.8000, -61.753
1219.0000, -62.991
1219.2000, -63.597
1219.4000, -62.892
1219.6000, -61.431
1219.8000, -60.265
1220.0000, -59.350
1220.2000, -59.065
1220.4000, -59.382
1220.6000, -60.174
1220.8000, -61.282
1221.0000, -63.032
1221.2000, -63.437
1221.4000, -63.190
1221.6000, -61.880
1221.8000, -60.662
1222.0000, -59.737
1222.2000, -59.201
1222.4000, -59.363
1222.6000, -59.917
1222.8000, -61.045
1223.0000, -62.592
1223.2000, -63.506
1223.4000, -63.295
1223.6000, -62.244
1223.8000, -60.937
1224.0000, -60.074
1224.2000, -59.342
1224.4000, -59.401
1224.6000, -59.824
1224.8000, -60.767
1225.0000, -61.918
1225.2000, -63.044
1225.4000, -63.482
1225.6000, -62.601
1225.8000, -61.369
1226.0000, -60.377
1226.2000, -59.771
1226.4000, -59.518
1226.6000, -59.716
1226.8000, -60.524
1227.0000, -61.598
1227.2000, -62.458
1227.4000, -63.287
1227.6000, -63.076
1227.8000, -62.205
1228.0000, -61.103
1228.2000, -60.348
1228.4000, -59.896
1228.6000, -59.845
1228.8000, -60.192
1229.0000, -60.956
1229.2000, -62.252
1229.4000, -62.835
1229.6000, -63.006
1229.8000, -62.761
1230.0000, -61.885
1230.2000, -60.918
1230.4000, -60.136
1230.6000, -59.911
1230.8000, -60.238
1231.0000, -60.812
1231.2000, -61.469
1231.4000, -62.435
1231.6000, -62.787
1231.8000, -62.992
1232.0000, -62.369
1232.2000, -61.443
1232.4000, -60.809
1232.6000, -60.531
1232.8000, -60.284
1233.0000, -60.519
1233.2000, -61.064
1233.4000, -61.928
1233.6000, -62.669
1233.8000, -62.832
1234.0000, -62.624
1234.2000, -62.219
1234.4000, -61.598
1234.6000, -60.878
1234.8000, -60.724
1235.0000, -60.621
1235.2000, -60.939
1235.4000, -61.367
1235.6000, -61.707
1235.8000, -62.377
1236.0000, -62.819
1236.2000, -62.604
1236.4000, -62.049
1236.6000, -61.537
1236.8000, -61.030
1237.0000, -61.078
1237.2000, -60.801
1237.4000, -61.065
1237.6000, -61.620
1237.8000, -61.805
1238.0000, -62.362
1238.2000, -62.647
1238.4000, -62.408
1238.6000, -62.270
1238.8000, -61.734
1239.0000, -61.409
1239.2000, -61.210
1239.4000, -61.365
1239.6000, -61.318
1239.8000, -61.713
1240.0000, -62.038
1240.2000, -62.229
1240.4000, -62.476
1240.6000, -62.325
1240.8000, -62.264
1241.0000, -61.903
1241.2000, -61.563
1241.4000, -61.549
1241.6000, -61.638
1241.8000, -61.666
1242.0000, -61.811
1242.2000, -61.995
1242.4000, -62.188
1242.6000, -62.281
1242.8000, -62.426
1243.0000, -62.366
1243.2000, -62.023
1243.4000, -61.832
1243.6000, -61.677
1243.8000, -61.621
1244.0000, -61.814
1244.2000, -62.027
1244.4000, -62.104
1244.6000, -62.107
1244.8000, -62.320
1245.0000, -62.311
1245.2000, -62.099
1245.4000, -62.135
1245.6000, -62.219
1245.8000, -62.003
1246.0000, -62.334
1246.2000, -62.211
1246.4000, -62.141
1246.6000, -62.164
1246.8000, -62.290
1247.0000, -62.253
1247.2000, -62.051
1247.4000, -61.947
1247.6000, -62.233
1247.8000, -62.057
1248.0000, -62.252
1248.2000, -62.480
1248.4000, -62.699
1248.6000, -62.855
1248.8000, -62.621
1249.0000, -62.377
1249.2000, -62.059
1249.4000, -61.992
1249.6000, -61.901
1249.8000, -61.943
1250.0000, -62.097
1250.2000, -62.251
1250.4000, -62.702
1250.6000, -62.887
1250.8000, -62.859
1251.0000, -62.730
1251.2000, -62.840
1251.4000, -62.212
1251.6000, -62.081
1251.8000, -61.818
1252.0000, -61.973
1252.2000, -62.087
1252.4000, -62.321
1252.6000, -62.586
1252.8000, -63.022
1253.0000, -63.291
1253.2000, -63.082
1253.4000, -63.253
1253.6000, -62.764
1253.8000, -62.388
1254.0000, -61.980
1254.2000, -61.857
1254.4000, -61.647
1254.6000, -61.757
1254.8000, -62.363
1255.0000, -62.787
1255.2000, -63.466
1255.4000, -63.842
1255.6000, -63.901
1255.8000, -63.682
1256.0000, -63.155
1256.2000, -62.604
1256.4000, -62.016
1256.6000, -61.536
1256.8000, -61.613
1257.0000, -61.916
1257.2000, -62.331
1257.4000, -63.061
1257.6000, -63.655
1257.8000, -64.147
1258.0000, -64.233
1258.2000, -64.147
1258.4000, -63.579
1258.6000, -62.590
1258.8000, -61.886
1259.0000, -61.892
1259.2000, -61.907
1259.4000, -61.765
1259.6000, -62.053
1259.8000, -62.691
1260.0000, -63.562
1260.2000, -64.426
1260.4000, -64.783
1260.6000, -64.666
1260.8000, -63.890
1261.0000, -63.141
1261.2000, -62.328
1261.4000, -61.803
1261.6000, -61.496
1261.8000, -61.588
1262.0000, -62.136
1262.2000, -62.645
1262.4000, -63.343
1262.6000, -64.374
1262.8000, -65.290
1263.0000, -65.293
1263.2000, -64.608
1263.4000, -63.693
1263.6000, -62.790
1263.8000, -62.088
1264.0000, -61.486
1264.2000, -61.464
1264.4000, -61.629
1264.6000, -62.135
1264.8000, -63.018
1265.0000, -64.073
1265.2000, -65.186
1265.4000, -65.815
1265.6000, -65.418
1265.8000, -64.766
1266.0000, -63.514
1266.2000, -62.634
1266.4000, -61.769
1266.6000, -61.466
1266.8000, -61.408
1267.0000, -61.640
1267.2000, -62.361
1267.4000, -63.405
1267.6000, -64.701
1267.8000, -65.927
1268.0000, -66.581
1268.2000, -65.868
1268.4000, -64.521
1268.6000, -63.477
1268.8000, -62.322
1269.0000, -61.596
1269.2000, -61.243
1269.4000, -61.347
1269.6000, -61.700
1269.8000, -62.676
1270.0000, -63.662
1270.2000, -65.067
1270.4000, -66.272
1270.6000, -66.864
1270.8000, -66.168
1271.0000, -64.678
1271.2000, -63.289
1271.4000, -62.335
1271.6000, -61.778
1271.8000, -61.292
1272.0000, -61.371
1272.2000, -61.718
1272.4000, -62.711
1272.6000, -63.405
1272.8000, -65.201
1273.0000, -66.461
1273.2000, -67.396
1273.4000, -66.764
1273.6000, -65.354
1273.8000, -63.824
1274.0000, -62.621
1274.2000, -61.790
1274.4000, -61.514
1274.6000, -61.315
1274.8000, -61.667
1275.0000, -62.512
1275.2000, -63.787
1275.4000, -64.897
1275.6000, -66.931
1275.8000, -67.989
1276.0000, -67.445
1276.2000, -66.094
1276.4000, -64.311
1276.6000, -63.067
1276.8000, -62.376
1277.0000, -61.578
1277.2000, -61.590
1277.4000, -61.808
1277.6000, -62.219
1277.8000, -63.237
1278.0000, -64.449
1278.2000, -66.064
1278.4000, -67.799
1278.6000, -68.324
1278.8000, -67.191
1279.0000, -65.692
1279.2000, -63.920
1279.4000, -62.863
1279.6000, -61.832
1279.8000, -61.550
1280.0000, -61.689
1280.2000, -61.914
1280.4000, -62.565
1280.6000, -63.765
1280.8000, -65.384
1281.0000, -67.165
1281.2000, -68.341
1281.4000, -68.247
1281.6000, -67.005
1281.8000, -65.071
1282.0000, -63.633
1282.2000, -62.684
1282.4000, -61.874
1282.6000, -61.694
1282.8000, -61.687
1283.0000, -62.119
1283.2000, -62.809
1283.4000, -64.352
1283.6000, -65.707
1283.8000, -67.696
1284.0000, -68.440
1284.2000, -68.349
1284.4000, -66.975
1284.6000, -65.047
1284.8000, -63.737
1285.0000, -62.586
1285.2000, -62.063
1285.4000, -61.708
1285.6000, -61.775
1285.8000, -62.246
1286.0000, -63.020
1286.2000, -64.445
1286.4000, -65.769
1286.6000, -67.454
1286.8000, -68.762
1287.0000, -68.617
1287.2000, -67.072
1287.4000, -65.378
1287.6000, -63.806
1287.8000, -62.658
1288.0000, -62.137
1288.2000, -61.729
1288.4000, -61.707
1288.6000, -62.073
1288.8000, -62.858
1289.0000, -63.943
1289.2000, -65.569
1289.4000, -67.029
1289.6000, -68.475
1289.8000, -68.573
1290.0000, -67.639
1290.2000, -65.989
1290.4000, -64.445
1290.6000, -63.523
1290.8000, -62.540
1291.0000, -62.151
1291.2000, -62.053
1291.4000, -62.008
1291.6000, -62.665
1291.8000, -63.510
1292.0000, -64.756
1292.2000, -66.267
1292.4000, -67.536
1292.6000, -68.610
1292.8000, -68.173
1293.0000, -66.909
1293.2000, -65.321
1293.4000, -64.140
1293.6000, -63.098
1293.8000, -62.550
1294.0000, -62.306
1294.2000, -62.184
1294.4000, -62.599
1294.6000, -63.067
1294.8000, -64.053
1295.0000, -65.285
1295.2000, -66.631
1295.4000, -67.984
1295.6000, -68.321
1295.8000, -67.853
1296.0000, -66.573
1296.2000, -65.157
1296.4000, -64.296
1296.6000, -63.196
1296.8000, -62.747
1297.0000, -62.408
1297.2000, -62.476
1297.4000, -62.851
1297.6000, -63.337
1297.8000, -64.262
1298.0000, -65.524
1298.2000, -66.647
1298.4000, -67.581
1298.6000, -68.018
1298.8000, -67.775
1299.0000, -66.544
1299.2000, -65.335
1299.4000, -64.311
1299.6000, -63.618
1299.8000, -62.992
1300.0000, -62.771
1300.2000, -62.896
1300.4000, -62.930
1300.6000, -63.688
1300.8000, -64.081
1301.0000, -65.283
1301.2000, -65.982
1301.4000, -67.377
1301.6000, -67.708
1301.8000, -67.562
1302.0000, -66.954
1302.2000, -65.718
1302.4000, -64.880
1302.6000, -64.076
1302.8000, -63.702
1303.0000, -63.205
1303.2000, -62.971
1303.4000, -63.174
1303.6000, -63.587
1303.8000, -63.951
1304.0000, -64.744
1304.2000, -65.660
1304.4000, -66.590
1304.6000, -67.118
1304.8000, -67.559
1305.0000, -66.851
1305.2000, -66.210
1305.4000, -65.227
1305.6000, -64.905
1305.8000, -64.013
1306.0000, -63.612
1306.2000, -63.302
1306.4000, -63.456
1306.6000, -63.565
1306.8000, -63.945
1307.0000, -64.564
1307.2000, -65.310
1307.4000, -65.668
1307.6000, -66.231
1307.8000, -66.665
1308.0000, -66.924
1308.2000, -66.587
1308.4000, -65.899
1308.6000, -65.421
1308.8000, -64.965
1309.0000, -64.296
1309.2000, -64.124
1309.4000, -63.849
1309.6000, -63.742
1309.8000, -63.903
1310.0000, -64.124
1310.2000, -64.647
1310.4000, -65.161
1310.6000, -65.705
1310.8000, -66.315
1311.0000, -66.598
1311.2000, -66.307
1311.4000, -66.191
1311.6000, -65.885
1311.8000, -65.495
1312.0000, -65.055
1312.2000, -64.757
1312.4000, -64.416
1312.6000, -64.370
1312.8000, -64.336
1313.0000, -64.414
1313.2000, -64.692
1313.4000, -64.926
1313.6000, -65.048
1313.8000, -65.496
1314.0000, -65.754
1314.2000, -66.109
1314.4000, -66.130
1314.6000, -66.060
1314.8000, -65.784
1315.0000, -65.475
1315.2000, -65.230
1315.4000, -65.137
1315.6000, -64.875
1315.8000, -64.865
1316.0000, -64.857
1316.2000, -64.940
1316.4000, -64.757
1316.6000, -64.971
1316.8000, -65.405
1317.0000, -65.455
1317.2000, -65.579
1317.4000, -65.567
1317.6000, -65.939
1317.8000, -66.024
1318.0000, -65.753
1318.2000, -65.511
1318.4000, -65.627
1318.6000, -65.432
1318.8000, -65.323
1319.0000, -65.233
1319.2000, -65.162
1319.4000, -65.295
1319.6000, -65.367
1319.8000, -65.367
1320.0000, -65.337
1320.2000, -65.443
1320.4000, -65.550
1320.6000, -65.655
1320.8000, -65.626
1321.0000, -65.623
1321.2000, -65.646
1321.4000, -65.396
1321.6000, -65.308
1321.8000, -65.481
1322.0000, -65.416
1322.2000, -65.263
1322.4000, -65.445
1322.6000, -65.762
1322.8000, -65.862
1323.0000, -66.062
1323.2000, -66.086
1323.4000, -66.053
1323.6000, -66.279
1323.8000, -65.874
1324.0000, -65.731
1324.2000, -65.648
1324.4000, -65.476
1324.6000, -65.403
1324.8000, -65.336
1325.0000, -65.222
1325.2000, -65.209
1325.4000, -65.439
1325.6000, -65.929
1325.8000, -66.092
1326.0000, -65.985
1326.2000, -66.296
1326.4000, -66.597
1326.6000, -66.877
1326.8000, -66.928
1327.0000, -66.864
1327.2000, -66.305
1327.4000, -66.334
1327.6000, -66.077
1327.8000, -65.708
1328.0000, -65.625
1328.2000, -65.165
1328.4000, -65.063
1328.6000, -65.195
1328.8000, -65.206
1329.0000, -65.422
1329.2000, -65.912
1329.4000, -66.231
1329.6000, -66.477
1329.8000, -67.005
1330.0000, -67.227
1330.2000, -67.366
1330.4000, -67.694
1330.6000, -67.410
1330.8000, -67.371
1331.0000, -66.610
1331.2000, -66.270
1331.4000, -65.724
1331.6000, -65.484
1331.8000, -65.212
1332.0000, -65.129
1332.2000, -65.088
1332.4000, -64.803
1332.6000, -65.356
1332.8000, -65.400
1333.0000, -66.026
1333.2000, -66.599
1333.4000, -67.364
1333.6000, -67.776
1333.8000, -68.094
1334.0000, -68.361
1334.2000, -68.515
1334.4000, -68.332
1334.6000, -67.637
1334.8000, -66.888
1335.0000, -66.207
1335.2000, -66.071
1335.4000, -65.272
1335.6000, -65.034
1335.8000, -64.876
1336.0000, -64.985
1336.2000, -65.043
1336.4000, -65.295
1336.6000, -65.802
1336.8000, -66.429
1337.0000, -67.040
1337.2000, -67.729
1337.4000, -68.529
1337.6000, -69.028
1337.8000, -69.688
1338.0000, -69.464
1338.2000, -68.971
1338.4000, -68.394
1338.6000, -67.528
1338.8000, -66.852
1339.0000, -65.949
1339.2000, -65.332
1339.4000, -65.186
1339.6000, -64.900
1339.8000, -64.733
1340.0000, -64.845
1340.2000, -65.208
1340.4000, -65.581
1340.6000, -66.074
1340.8000, -66.910
1341.0000, -67.581
1341.2000, -68.814
1341.4000, -70.309
1341.6000, -70.501
1341.8000, -70.884
1342.0000, -70.541
1342.2000, -69.618
1342.4000, -68.763
1342.6000, -67.399
1342.8000, -66.743
1343.0000, -65.961
1343.2000, -65.631
1343.4000, -65.176
1343.6000, -64.950
1343.8000, -64.905
1344.0000, -65.006
1344.2000, -65.362
1344.4000, -65.722
1344.6000, -66.558
1344.8000, -67.401
1345.0000, -68.017
1345.2000, -69.571
1345.4000, -70.441
1345.6000, -71.529
1345.8000, -72.168
1346.0000, -71.511
1346.2000, -70.413
1346.4000, -69.126
1346.6000, -68.168
1346.8000, -67.063
1347.0000, -66.531
1347.2000, -65.653
1347.4000, -65.632
1347.6000, -65.287
1347.8000, -64.999
1348.0000, -65.331
1348.2000, -65.457
1348.4000, -65.744
1348.6000, -66.357
1348.8000, -66.988
1349.0000, -68.059
1349.2000, -69.076
1349.4000, -70.558
1349.6000, -71.797
1349.8000, -72.546
1350.0000, -73.350
1350.2000, -71.791
1350.4000, -71.007
1350.6000, -69.553
1350.8000, -68.488
1351.0000, -67.265
1351.2000, -66.529
1351.4000, -66.035
1351.6000, -65.604
1351.8000, -65.438
1352.0000, -65.272
1352.2000, -65.477
1352.4000, -65.614
1352.6000, -66.095
1352.8000, -66.679
1353.0000, -67.613
1353.2000, -68.498
1353.4000, -69.757
1353.6000, -70.964
1353.8000, -72.620
1354.0000, -73.727
1354.2000, -74.812
1354.4000, -74.847
1354.6000, -72.934
1354.8000, -71.295
1355.0000, -69.718
1355.2000, -68.551
1355.4000, -68.015
1355.6000, -67.086
1355.8000, -66.591
1356.0000, -66.034
1356.2000, -65.703
1356.4000, -65.528
1356.6000, -65.832
1356.8000, -66.253
1357.0000, -66.548
1357.2000, -67.554
1357.4000, -68.420
1357.6000, -68.885
1357.8000, -70.159
1358.0000, -71.838
1358.2000, -73.302
1358.4000, -74.251
1358.6000, -75.591
1358.8000, -74.313
1359.0000, -73.065
1359.2000, -72.487
1359.4000, -70.922
1359.6000, -69.179
1359.8000, -68.212
1360.0000, -67.309
1360.2000, -66.628
1360.4000, -66.527
1360.6000, -66.319
1360.8000, -66.388
1361.0000, -66.624
1361.2000, -67.051
1361.4000, -67.329
1361.6000, -67.696
1361.8000, -68.792
1362.0000, -70.124
1362.2000, -70.933
1362.4000, -72.433
1362.6000, -74.028
1362.8000, -74.693
1363.0000, -76.012
1363.2000, -75.417
1363.4000, -74.349
1363.6000, -72.996
1363.8000, -71.976
1364.0000, -70.603
1364.2000, -70.022
1364.4000, -69.276
1364.6000, -68.778
1364.8000, -67.644
1365.0000, -67.967
1365.2000, -67.237
1365.4000, -66.987
1365.6000, -66.871
1365.8000, -66.819
1366.0000, -66.904
1366.2000, -67.386
1366.4000, -67.970
1366.6000, -68.946
1366.8000, -69.989
1367.0000, -71.184
1367.2000, -72.810
1367.4000, -74.378
1367.6000, -75.789
1367.8000, -77.230
1368.0000, -75.600
1368.2000, -75.227
1368.4000, -73.981
1368.6000, -72.345
1368.8000, -71.065
1369.0000, -69.679
1369.2000, -68.605
1369.4000, -67.947
1369.6000, -67.860
1369.8000, -67.515
1370.0000, -67.226
1370.2000, -67.428
1370.4000, -67.455
1370.6000, -67.728
1370.8000, -68.099
1371.0000, -68.610
1371.2000, -69.096
1371.4000, -69.562
1371.6000, -70.130
1371.8000, -71.091
1372.0000, -72.494
1372.2000, -73.682
1372.4000, -74.976
1372.6000, -75.667
1372.8000, -75.455
1373.0000, -74.331
1373.2000, -74.154
1373.4000, -72.508
1373.6000, -71.701
1373.8000, -70.642
1374.0000, -69.825
1374.2000, -69.305
1374.4000, -68.962
1374.6000, -68.636
1374.8000, -68.163
1375.0000, -68.304
1375.2000, -68.065
1375.4000, -67.820
1375.6000, -68.170
1375.8000, -68.329
1376.0000, -68.753
1376.2000, -69.442
1376.4000, -69.988
1376.6000, -70.952
1376.8000, -72.198
1377.0000, -73.068
1377.2000, -74.162
1377.4000, -74.371
1377.6000, -74.630
1377.8000, -74.421
1378.0000, -74.561
1378.2000, -74.406
1378.4000, -73.801
1378.6000, -72.719
1378.8000, -71.968
1379.0000, -71.179
1379.2000, -70.827
1379.4000, -70.011
1379.6000, -69.695
1379.8000, -69.479
1380.0000, -69.265
1380.2000, -69.942
1380.4000, -70.403
1380.6000, -70.709
1380.8000, -70.805
1381.0000, -70.887
1381.2000, -70.740
1381.4000, -70.767
1381.6000, -70.855
1381.8000, -71.802
1382.0000, -72.772
1382.2000, -73.649
1382.4000, -75.207
1382.6000, -76.325
1382.8000, -75.943
1383.0000, -76.132
1383.2000, -75.498
1383.4000, -75.018
1383.6000, -74.622
1383.8000, -73.887
1384.0000, -73.839
1384.2000, -72.765
1384.4000, -72.195
1384.6000, -71.919
1384.8000, -71.798
1385.0000, -71.788
1385.2000, -71.157
1385.4000, -71.120
1385.6000, -70.840
1385.8000, -71.007
1386.0000, -71.360
1386.2000, -70.776
1386.4000, -71.016
1386.6000, -71.540
1386.8000, -71.782
1387.0000, -72.222
1387.2000, -72.560
1387.4000, -73.334
1387.6000, -73.737
1387.8000, -74.289
1388.0000, -75.451
1388.2000, -75.165
1388.4000, -75.445
1388.6000, -75.156
1388.8000, -74.964
1389.0000, -74.578
1389.2000, -74.100
1389.4000, -74.166
1389.6000, -73.718
1389.8000, -72.784
1390.0000, -73.030
1390.2000, -72.378
1390.4000, -72.457
1390.6000, -71.746
1390.8000, -71.735
1391.0000, -72.301
1391.2000, -71.970
1391.4000, -71.900
1391.6000, -72.493
1391.8000, -72.442
1392.0000, -72.775
1392.2000, -72.962
1392.4000, -73.864
1392.6000, -74.018
1392.8000, -74.566
1393.0000, -73.934
1393.2000, -74.016
1393.4000, -74.635
1393.6000, -74.673
1393.8000, -74.478
1394.0000, -74.351
1394.2000, -75.440
1394.4000, -74.604
1394.6000, -74.977
1394.8000, -75.069
1395.0000, -75.130
1395.2000, -75.003
1395.4000, -74.682
1395.6000, -74.263
1395.8000, -74.107
1396.0000, -74.391
1396.2000, -74.524
1396.4000, -73.930
1396.6000, -73.652
1396.8000, -73.571
1397.0000, -73.940
1397.2000, -73.938
1397.4000, -73.719
1397.6000, -73.690
1397.8000, -73.663
1398.0000, -74.242
1398.2000, -74.293
1398.4000, -74.287
1398.6000, -74.358
1398.8000, -75.119
1399.0000, -75.049
1399.2000, -75.235
1399.4000, -74.726
1399.6000, -75.098
1399.8000, -75.783
1400.0000, -75.226
1400.2000, -76.677
1400.4000, -75.777
1400.6000, -74.900
1400.8000, -75.494
1401.0000, -75.149
1401.2000, -74.872
1401.4000, -74.851
1401.6000, -74.227
1401.8000, -74.744
1402.0000, -74.364
1402.2000, -74.416
1402.4000, -74.382
1402.6000, -74.080
1402.8000, -73.976
1403.0000, -74.765
1403.2000, -74.235
1403.4000, -74.462
1403.6000, -75.209
1403.8000, -75.353
1404.0000, -75.559
1404.2000, -76.084
1404.4000, -75.349
1404.6000, -77.450
1404.8000, -75.683
1405.0000, -76.683
1405.2000, -76.692
1405.4000, -75.222
1405.6000, -74.756
1405.8000, -75.351
1406.0000, -74.008
1406.2000, -74.849
1406.4000, -74.798
1406.6000, -74.988
1406.8000, -74.217
1407.0000, -74.615
1407.2000, -74.694
1407.4000, -74.246
1407.6000, -74.836
1407.8000, -74.204
1408.0000, -73.712
1408.2000, -74.279
1408.4000, -74.476
1408.6000, -74.436
1408.8000, -75.163
1409.0000, -75.958
1409.2000, -75.589
1409.4000, -76.507
1409.6000, -76.359
1409.8000, -75.968
1410.0000, -76.170
1410.2000, -76.656
1410.4000, -75.803
1410.6000, -75.782
1410.8000, -75.753
1411.0000, -75.986
1411.2000, -75.811
1411.4000, -75.498
1411.6000, -75.180
1411.8000, -74.980
1412.0000, -75.140
1412.2000, -74.382
1412.4000, -74.452
1412.6000, -74.406
1412.8000, -73.377
1413.0000, -73.644
1413.2000, -73.759
1413.4000, -73.270
1413.6000, -73.807
1413.8000, -73.758
1414.0000, -73.730
1414.2000, -74.039
1414.4000, -74.205
1414.6000, -74.196
1414.8000, -74.212
1415.0000, -74.219
1415.2000, -73.875
1415.4000, -74.041
1415.6000, -74.563
1415.8000, -73.901
1416.0000, -75.430
1416.2000, -75.313
1416.4000, -76.933
1416.6000, -75.710
1416.8000, -76.950
1417.0000, -77.540
1417.2000, -77.921
1417.4000, -77.879
1417.6000, -76.406
1417.8000, -77.312
1418.0000, -76.615
1418.2000, -76.655
1418.4000, -76.267
1418.6000, -76.366
1418.8000, -75.263
1419.0000, -75.828
1419.2000, -74.311
1419.4000, -74.949
1419.6000, -74.624
1419.8000, -73.827
1420.0000, -73.402
1420.2000, -73.463
1420.4000, -72.738
1420.6000, -72.997
1420.8000, -73.224
1421.0000, -72.690
1421.2000, -72.967
1421.4000, -72.978
1421.6000, -73.374
1421.8000, -73.276
1422.0000, -73.734
1422.2000, -73.472
1422.4000, -74.276
1422.6000, -74.398
1422.8000, -75.570
1423.0000, -75.356
1423.2000, -76.184
1423.4000, -75.585
1423.6000, -77.063
1423.8000, -76.578
1424.0000, -77.413
1424.2000, -77.881
1424.4000, -78.540
1424.6000, -78.677
1424.8000, -78.788
1425.0000, -77.306
1425.2000, -77.662
1425.4000, -78.568
1425.6000, -77.930
1425.8000, -77.364
1426.0000, -76.449
1426.2000, -76.300
1426.4000, -76.125
1426.6000, -75.388
1426.8000, -74.436
1427.0000, -74.364
1427.2000, -74.149
1427.4000, -74.360
1427.6000, -73.582
1427.8000, -73.433
1428.0000, -73.741
1428.2000, -73.294
1428.4000, -73.301
1428.6000, -73.026
1428.8000, -72.530
1429.0000, -73.001
1429.2000, -72.697
1429.4000, -73.525
1429.6000, -73.326
1429.8000, -73.370
1430.0000, -74.090
1430.2000, -74.003
1430.4000, -73.827
1430.6000, -75.055
1430.8000, -75.111
1431.0000, -76.367
1431.2000, -76.330
1431.4000, -77.308
1431.6000, -78.998
1431.8000, -77.738
1432.0000, -79.543
1432.2000, -81.306
1432.4000, -83.412
1432.6000, -80.904
1432.8000, -82.153
1433.0000, -79.140
1433.2000, -80.893
1433.4000, -80.063
1433.6000, -79.379
1433.8000, -77.949
1434.0000, -78.391
1434.2000, -76.715
1434.4000, -76.465
1434.6000, -75.932
1434.8000, -75.710
1435.0000, -74.523
1435.2000, -74.769
1435.4000, -74.289
1435.6000, -74.015
1435.8000, -73.750
1436.0000, -73.238
1436.2000, -73.580
1436.4000, -73.819
1436.6000, -73.193
1436.8000, -72.830
1437.0000, -72.446
1437.2000, -72.805
1437.4000, -72.932
1437.6000, -72.534
1437.8000, -72.835
1438.0000, -73.094
1438.2000, -73.531
1438.4000, -73.448
1438.6000, -73.931
1438.8000, -74.071
1439.0000, -74.574
1439.2000, -75.361
1439.4000, -76.312
1439.6000, -76.541
1439.8000, -76.400
1440.0000, -79.159
1440.2000, -79.495
1440.4000, -79.947
1440.6000, -80.356
1440.8000, -81.087
1441.0000, -82.249
1441.2000, -82.422
1441.4000, -87.580
1441.6000, -83.462
1441.8000, -86.709
1442.0000, -84.462
1442.2000, -86.006
1442.4000, -81.347
1442.6000, -80.164
1442.8000, -78.927
1443.0000, -77.668
1443.2000, -78.372
1443.4000, -76.355
1443.6000, -77.412
1443.8000, -76.242
1444.0000, -75.294
1444.2000, -75.225
1444.4000, -74.912
1444.6000, -73.828
1444.8000, -74.106
1445.0000, -73.995
1445.2000, -73.849
1445.4000, -73.704
1445.6000, -73.816
1445.8000, -73.515
1446.0000, -73.907
1446.2000, -73.490
1446.4000, -73.031
1446.6000, -73.110
1446.8000, -73.341
1447.0000, -73.854
1447.2000, -73.463
1447.4000, -73.978
1447.6000, -74.250
1447.8000, -74.158
1448.0000, -74.403
1448.2000, -74.477
1448.4000, -75.106
1448.6000, -75.879
1448.8000, -76.059
1449.0000, -75.856
1449.2000, -77.098
1449.4000, -78.379
1449.6000, -78.815
1449.8000, -78.742
1450.0000, -79.219
1450.2000, -80.512
1450.4000, -81.545
1450.6000, -82.423
1450.8000, -83.782
1451.0000, -82.357
1451.2000, -81.699
1451.4000, -80.661
1451.6000, -83.267
1451.8000, -83.470
1452.0000, -84.673
1452.2000, -82.905
1452.4000, -80.517
1452.6000, -80.131
1452.8000, -81.361
1453.0000, -79.466
1453.2000, -78.153
1453.4000, -78.310
1453.6000, -77.079
1453.8000, -76.896
1454.0000, -75.954
1454.2000, -76.265
1454.4000, -75.861
1454.6000, -75.025
1454.8000, -75.257
1455.0000, -74.893
1455.2000, -74.491
1455.4000, -74.546
1455.6000, -74.688
1455.8000, -74.192
1456.0000, -74.200
1456.2000, -74.242
1456.4000, -73.910
1456.6000, -74.150
1456.8000, -74.410
1457.0000, -73.894
1457.2000, -73.496
1457.4000, -74.441
1457.6000, -74.504
1457.8000, -74.240
1458.0000, -74.714
1458.2000, -74.863
1458.4000, -74.605
1458.6000, -74.706
1458.8000, -75.623
1459.0000, -76.182
1459.2000, -76.374
1459.4000, -77.609
1459.6000, -77.656
1459.8000, -76.707
1460.0000, -78.671
1460.2000, -78.884
1460.4000, -79.620
1460.6000, -81.239
1460.8000, -80.479
1461.0000, -81.114
1461.2000, -82.423
1461.4000, -81.168
1461.6000, -81.360
1461.8000, -81.516
1462.0000, -83.311
1462.2000, -84.270
1462.4000, -83.092
1462.6000, -83.802
1462.8000, -86.930
1463.0000, -81.830
1463.2000, -83.346
1463.4000, -81.122
1463.6000, -80.024
1463.8000, -80.132
1464.0000, -80.822
1464.2000, -78.567
1464.4000, -79.412
1464.6000, -78.955
1464.8000, -76.803
1465.0000, -78.606
1465.2000, -77.244
1465.4000, -76.674
1465.6000, -76.736
1465.8000, -76.853
1466.0000, -76.571
1466.2000, -76.328
1466.4000, -75.603
1466.6000, -76.897
1466.8000, -75.820
1467.0000, -74.939
1467.2000, -75.294
1467.4000, -75.768
1467.6000, -75.353
1467.8000, -74.543
1468.0000, -75.761
1468.2000, -74.573
1468.4000, -75.433
1468.6000, -75.205
1468.8000, -74.560
1469.0000, -74.572
1469.2000, -75.917
1469.4000, -75.774
1469.6000, -76.065
1469.8000, -75.440
1470.0000, -76.438
1470.2000, -76.910
1470.4000, -77.348
1470.6000, -76.295
1470.8000, -77.599
1471.0000, -76.659
1471.2000, -76.846
1471.4000, -77.987
1471.6000, -76.860
1471.8000, -77.893
1472.0000, -79.045
1472.2000, -79.061
1472.4000, -78.974
1472.6000, -79.530
1472.8000, -80.002
1473.0000, -82.252
1473.2000, -79.474
1473.4000, -80.577
1473.6000, -80.384
1473.8000, -79.610
1474.0000, -80.571
1474.2000, -82.485
1474.4000, -80.923
1474.6000, -80.477
1474.8000, -81.386
1475.0000, -80.286
1475.2000, -78.854
1475.4000, -81.998
1475.6000, -79.691
1475.8000, -79.754
1476.0000, -80.387
1476.2000, -80.198
1476.4000, -80.689
1476.6000, -80.516
1476.8000, -79.962
1477.0000, -78.252
1477.2000, -78.730
1477.4000, -78.482
1477.6000, -77.688
1477.8000, -77.163
1478.0000, -77.737
1478.2000, -77.617
1478.4000, -77.551
1478.6000, -77.846
1478.8000, -77.916
1479.0000, -77.214
1479.2000, -77.090
1479.4000, -76.659
1479.6000, -77.618
1479.8000, -77.224
1480.0000, -76.378
1480.2000, -76.328
1480.4000, -76.578
1480.6000, -76.791
1480.8000, -76.250
1481.0000, -76.691
1481.2000, -76.742
1481.4000, -77.048
1481.6000, -76.778
1481.8000, -77.313
1482.0000, -76.768
1482.2000, -77.174
1482.4000, -76.340
1482.6000, -77.268
1482.8000, -76.940
1483.0000, -77.285
1483.2000, -77.344
1483.4000, -77.286
1483.6000, -77.474
1483.8000, -77.824
1484.0000, -77.142
1484.2000, -77.305
1484.4000, -78.075
1484.6000, -78.087
1484.8000, -78.815
1485.0000, -78.312
1485.2000, -78.556
1485.4000, -78.939
1485.6000, -81.548
1485.8000, -77.632
1486.0000, -77.989
1486.2000, -80.106
1486.4000, -80.801
1486.6000, -79.361
1486.8000, -79.086
1487.0000, -80.424
1487.2000, -79.237
1487.4000, -80.473
1487.6000, -79.838
1487.8000, -82.163
1488.0000, -82.239
1488.2000, -80.344
1488.4000, -80.651
1488.6000, -82.085
1488.8000, -79.030
1489.0000, -78.884
1489.2000, -81.167
1489.4000, -79.281
1489.6000, -80.240
1489.8000, -78.354
1490.0000, -77.413
1490.2000, -79.782
1490.4000, -79.451
1490.6000, -79.311
1490.8000, -79.223
1491.0000, -80.274
1491.2000, -80.028
1491.4000, -77.623
1491.6000, -77.935
1491.8000, -78.181
1492.0000, -78.718
1492.2000, -80.346
1492.4000, -79.392
1492.6000, -79.642
1492.8000, -79.986
1493.0000, -77.343
1493.2000, -77.219
1493.4000, -78.756
1493.6000, -77.223
1493.8000, -78.367
1494.0000, -78.323
1494.2000, -77.901
1494.4000, -78.031
1494.6000, -79.304
1494.8000, -78.471
1495.0000, -79.111
1495.2000, -78.137
1495.4000, -77.621
1495.6000, -78.715
1495.8000, -79.020
1496.0000, -78.065
1496.2000, -78.749
1496.4000, -79.408
1496.6000, -79.766
1496.8000, -78.104
1497.0000, -80.682
1497.2000, -78.570
1497.4000, -78.694
1497.6000, -77.385
1497.8000, -78.778
1498.0000, -79.326
1498.2000, -80.880
1498.4000, -78.344
1498.6000, -78.229
1498.8000, -79.282
1499.0000, -79.282
1499.2000, -80.366
1499.4000, -78.664
1499.6000, -78.929
1499.8000, -79.771
1500.0000, -80.796
1500.2000, -78.864
1500.4000, -79.100
1500.6000, -81.838
1500.8000, -79.226
1501.0000, -78.979
1501.2000, -79.648
1501.4000, -78.757
1501.6000, -81.348
1501.8000, -79.604
1502.0000, -81.205
1502.2000, -80.919
1502.4000, -79.294
1502.6000, -81.428
1502.8000, -82.518
1503.0000, -79.022
1503.2000, -80.447
1503.4000, -79.552
1503.6000, -79.380
1503.8000, -79.352
1504.0000, -79.048
1504.2000, -80.106
1504.4000, -80.729
1504.6000, -79.657
1504.8000, -79.155
1505.0000, -79.322
1505.2000, -80.048
1505.4000, -80.167
1505.6000, -77.796
1505.8000, -79.325
1506.0000, -79.369
1506.2000, -79.711
1506.4000, -80.599
1506.6000, -79.572
1506.8000, -78.792
1507.0000, -79.377
1507.2000, -78.531
1507.4000, -79.061
1507.6000, -79.188
1507.8000, -78.958
1508.0000, -79.157
1508.2000, -79.440
1508.4000, -78.738
1508.6000, -79.486
1508.8000, -80.352
1509.0000, -79.317
1509.2000, -76.918
1509.4000, -78.669
1509.6000, -77.405
1509.8000, -79.288
1510.0000, -78.497
1510.2000, -77.769
1510.4000, -78.216
1510.6000, -77.619
1510.8000, -79.196
1511.0000, -78.131
1511.2000, -77.821
1511.4000, -77.492
1511.6000, -77.087
1511.8000, -78.469
1512.0000, -80.602
1512.2000, -79.363
1512.4000, -79.024
1512.6000, -78.621
1512.8000, -79.390
1513.0000, -79.569
1513.2000, -77.479
1513.4000, -79.389
1513.6000, -79.047
1513.8000, -81.067
1514.0000, -81.055
1514.2000, -80.138
1514.4000, -80.128
1514.6000, -79.985
1514.8000, -78.734
1515.0000, -79.667
1515.2000, -81.403
1515.4000, -81.500
1515.6000, -79.680
1515.8000, -80.627
1516.0000, -81.700
1516.2000, -82.349
1516.4000, -81.107
1516.6000, -79.591
1516.8000, -82.672
1517.0000, -81.930
1517.2000, -81.939
1517.4000, -82.886
1517.6000, -81.884
1517.8000, -82.930
1518.0000, -82.122
1518.2000, -82.888
1518.4000, -83.100
1518.6000, -81.698
1518.8000, -81.653
1519.0000, -81.565
1519.2000, -82.910
1519.4000, -80.802
1519.6000, -84.064
1519.8000, -81.661
1520.0000, -80.804
1520.2000, -85.329
1520.4000, -83.495
1520.6000, -93.872
1520.8000, -81.965
1521.0000, -83.099
1521.2000, -83.959
1521.4000, -82.166
1521.6000, -84.229
1521.8000, -81.497
1522.0000, -83.071
1522.2000, -84.690
1522.4000,-117.507
1522.6000, -81.366
1522.8000, -95.445
1523.0000, -83.393
1523.2000, -81.611
1523.4000, -83.408
1523.6000, -81.462
1523.8000, -85.051
1524.0000, -82.440
1524.2000, -80.551
1524.4000, -86.276
1524.6000, -79.943
1524.8000, -80.329
1525.0000, -81.663
1525.2000, -82.676
1525.4000, -81.477
1525.6000, -84.613
1525.8000, -81.671
1526.0000, -82.023
1526.2000, -83.368
1526.4000, -82.281
1526.6000, -82.995
1526.8000, -82.180
1527.0000, -79.765
1527.2000, -85.323
1527.4000, -82.535
1527.6000, -80.502
1527.8000, -81.515
1528.0000, -80.151
1528.2000, -80.073
1528.4000, -81.616
1528.6000, -80.651
1528.8000, -79.979
1529.0000, -82.324
1529.2000, -85.244
1529.4000, -79.526
1529.6000, -80.209
1529.8000, -80.042
1530.0000, -80.329
1530.2000, -81.403
1530.4000, -79.901
1530.6000, -79.718
1530.8000, -79.468
1531.0000, -78.672
1531.2000, -79.713
1531.4000, -80.042
1531.6000, -78.820
1531.8000, -78.358
1532.0000, -78.292
1532.2000, -78.368
1532.4000, -79.184
1532.6000, -80.129
1532.8000, -79.211
1533.0000, -80.175
1533.2000, -78.164
1533.4000, -78.028
1533.6000, -78.979
1533.8000, -79.863
1534.0000, -80.138
1534.2000, -78.812
1534.4000, -78.809
1534.6000, -77.941
1534.8000, -79.430
1535.0000, -79.941
1535.2000, -78.670
1535.4000, -79.845
1535.6000, -78.937
1535.8000, -78.143
1536.0000, -78.046
1536.2000, -77.580
1536.4000, -78.534
1536.6000, -77.592
1536.8000, -78.444
1537.0000, -79.037
1537.2000, -81.628
1537.4000, -79.582
1537.6000, -80.896
1537.8000, -78.623
1538.0000, -78.763
1538.2000, -79.357
1538.4000, -78.697
1538.6000, -77.656
1538.8000, -78.958
1539.0000, -80.151
1539.2000, -79.468
1539.4000, -79.750
1539.6000, -78.270
1539.8000, -78.542
1540.0000, -79.429
1540.2000, -79.318
1540.4000, -79.496
1540.6000, -79.733
1540.8000, -78.376
1541.0000, -79.336
1541.2000, -79.765
1541.4000, -80.316
1541.6000, -79.122
1541.8000, -82.390
1542.0000, -80.380
1542.2000, -80.160
1542.4000, -82.004
1542.6000, -78.390
1542.8000, -80.141
1543.0000, -84.507
1543.2000, -81.341
1543.4000, -80.202
1543.6000, -81.473
1543.8000, -80.250
1544.0000, -82.955
1544.2000, -81.904
1544.4000, -83.684
1544.6000, -81.479
1544.8000, -83.991
1545.0000, -80.363
1545.2000, -85.096
1545.4000, -83.404
1545.6000, -83.734
1545.8000, -81.855
1546.0000, -85.412
1546.2000, -81.387
1546.4000,-210.000
1546.6000, -85.960
1546.8000, -81.411
1547.0000, -88.022
1547.2000, -86.163
1547.4000,-210.000
1547.6000, -85.162
1547.8000, -97.469
1548.0000, -84.739
1548.2000, -85.490
1548.4000, -84.053
1548.6000, -91.489
1548.8000, -88.248
1549.0000, -84.003
1549.2000, -86.657
1549.4000, -83.175
1549.6000, -82.264
1549.8000, -87.955
1550.0000, -82.324
1550.2000,-210.000
1550.4000, -84.550
1550.6000,-210.000
1550.8000, -90.406
1551.0000,-210.000
1551.2000, -85.078
1551.4000, -85.198
1551.6000, -86.572
1551.8000, -85.209
1552.0000,-210.000
1552.2000, -91.894
1552.4000, -82.397
1552.6000,-210.000
1552.8000, -87.114
1553.0000,-210.000
1553.2000, -88.616
1553.4000,-210.000
1553.6000, -90.909
1553.8000, -84.144
1554.0000, -89.526
1554.2000, -91.767
1554.4000,-210.000
1554.6000, -92.505
1554.8000,-210.000
1555.0000,-210.000
1555.2000, -86.560
1555.4000, -87.507
1555.6000, -87.378
1555.8000, -84.739
1556.0000,-210.000
1556.2000, -84.087
1556.4000, -85.237
1556.6000, -88.740
1556.8000, -85.935
1557.0000, -85.575
1557.2000,-210.000
1557.4000, -85.344
1557.6000, -90.215
1557.8000,-210.000
1558.0000, -86.496
1558.2000, -90.959
1558.4000, -82.415
1558.6000, -81.922
1558.8000,-210.000
1559.0000, -83.672
1559.2000, -86.647
1559.4000, -82.560
1559.6000, -83.959
1559.8000, -84.911
1560.0000, -89.002
1560.2000, -86.717
1560.4000,-210.000
1560.6000, -86.265
1560.8000,-210.000
1561.0000,-210.000
1561.2000, -82.809
1561.4000,-210.000
1561.6000, -83.825
1561.8000, -83.135
1562.0000,-210.000
1562.2000, -83.984
1562.4000, -82.910
1562.6000, -83.441
1562.8000, -84.082
1563.0000, -88.237
1563.2000, -86.957
1563.4000,-210.000
1563.6000, -92.848
1563.8000, -81.164
1564.0000,-210.000
1564.2000, -86.427
1564.4000,-210.000
1564.6000, -86.672
1564.8000, -86.668
1565.0000, -82.946
1565.2000, -86.041
1565.4000, -89.719
1565.6000, -84.134
1565.8000, -83.704
1566.0000, -87.310
1566.2000,-210.000
1566.4000, -84.046
1566.6000, -83.475
1566.8000, -92.644
1567.0000, -83.242
1567.2000,-210.000
1567.4000, -82.265
1567.6000, -85.396
1567.8000, -81.851
1568.0000, -82.616
1568.2000, -79.849
1568.4000, -82.386
1568.6000, -85.484
1568.8000, -83.193
1569.0000, -81.380
1569.2000, -88.891
1569.4000, -86.510
1569.6000, -80.677
1569.8000, -83.708
1570.0000, -83.221
1570.2000, -82.302
1570.4000, -81.973
1570.6000, -82.512
1570.8000, -82.154
1571.0000, -80.750
1571.2000, -84.054
1571.4000, -83.565
1571.6000, -86.008
1571.8000, -84.564
1572.0000, -81.900
1572.2000, -81.428
1572.4000, -87.010
1572.6000, -81.167
1572.8000, -85.592
1573.0000, -81.723
1573.2000, -82.296
1573.4000, -81.397
1573.6000, -87.463
1573.8000, -86.251
1574.0000, -82.242
1574.2000, -82.891
1574.4000, -80.978
1574.6000, -82.264
1574.8000, -80.135
1575.0000, -81.586
1575.2000, -80.891
1575.4000, -84.584
1575.6000, -81.369
1575.8000, -81.411
1576.0000, -82.265
1576.2000, -80.481
1576.4000, -84.507
1576.6000, -84.587
1576.8000, -83.683
1577.0000, -82.073
1577.2000, -82.920
1577.4000, -78.973
1577.6000, -84.083
1577.8000, -79.710
1578.0000, -80.736
1578.2000, -80.820
1578.4000, -80.983
1578.6000, -86.003
1578.8000, -83.959
1579.0000, -82.915
1579.2000, -81.676
1579.4000, -82.012
1579.6000, -92.650
1579.8000, -81.089
1580.0000, -84.373
1580.2000, -80.619
1580.4000, -81.468
1580.6000, -86.523
1580.8000, -83.859
1581.0000, -80.671
1581.2000, -84.402
1581.4000, -82.920
1581.6000, -79.836
1581.8000, -80.563
1582.0000, -83.651
1582.2000, -81.663
1582.4000, -82.396
1582.6000, -82.406
1582.8000, -83.027
1583.0000, -80.320
1583.2000, -83.338
1583.4000, -81.645
1583.6000, -81.929
1583.8000, -81.004
1584.0000, -81.898
1584.2000, -84.058
1584.4000, -80.836
1584.6000, -81.167
1584.8000, -81.754
1585.0000, -85.320
1585.2000, -83.158
1585.4000, -80.060
1585.6000, -81.703
1585.8000, -80.896
1586.0000, -80.944
1586.2000, -81.721
1586.4000, -82.418
1586.6000, -81.027
1586.8000, -82.355
1587.0000, -78.775
1587.2000, -79.769
1587.4000, -79.725
1587.6000, -80.687
1587.8000, -80.838
1588.0000, -84.480
1588.2000, -81.100
1588.4000, -83.722
1588.6000, -84.098
1588.8000, -84.792
1589.0000, -81.672
1589.2000, -82.636
1589.4000,-100.102
1589.6000,-210.000
1589.8000, -80.619
1590.0000, -83.516
1590.2000, -83.719
1590.4000, -82.528
1590.6000, -88.313
1590.8000, -82.716
1591.0000, -97.209
1591.2000, -88.520
1591.4000, -82.549
1591.6000,-210.000
1591.8000, -84.950
1592.0000,-210.000
1592.2000, -81.950
1592.4000, -81.350
1592.6000, -89.359
1592.8000,-210.000
1593.0000, -86.818
1593.2000, -80.523
1593.4000, -83.096
1593.6000, -79.152
1593.8000,-210.000
1594.0000, -84.088
1594.2000, -83.901
1594.4000, -81.745
1594.6000,-210.000
1594.8000, -84.576
1595.0000, -81.248
1595.2000, -88.983
1595.4000, -83.240
1595.6000, -85.363
1595.8000, -82.664
1596.0000, -83.128
1596.2000,-210.000
1596.4000, -85.865
1596.6000, -82.491
1596.8000, -83.934
1597.0000, -83.277
1597.2000,-210.000
1597.4000, -84.565
1597.6000, -94.491
1597.8000, -82.867
1598.0000, -83.455
1598.2000, -82.190
1598.4000, -88.864
1598.6000, -83.493
1598.8000, -84.632
1599.0000, -82.570
1599.2000, -87.419
1599.4000, -83.711
1599.6000,-105.414
1599.8000, -85.823
1600.0000, -82.542
1600.2000, -84.567
1600.4000, -85.028
1600.6000, -82.280
1600.8000, -83.186
1601.0000, -88.442
1601.2000, -82.512
1601.4000, -88.689
1601.6000, -89.260
1601.8000, -85.890
1602.0000, -87.004
1602.2000,-210.000
1602.4000,-210.000
1602.6000, -81.310
1602.8000,-210.000
1603.0000, -86.754
1603.2000,-210.000
1603.4000,-210.000
1603.6000,-210.000
1603.8000, -84.436
1604.0000, -86.838
1604.2000, -82.438
1604.4000, -88.870
1604.6000,-210.000
1604.8000, -89.451
1605.0000, -93.025
1605.2000,-210.000
1605.4000, -82.706
1605.6000, -86.125
1605.8000, -82.551
1606.0000, -86.927
1606.2000, -90.191
1606.4000, -87.962
1606.6000, -84.023
1606.8000, -82.949
1607.0000,-210.000
1607.2000, -90.941
1607.4000,-210.000
1607.6000,-101.863
1607.8000, -85.249
1608.0000,-210.000
1608.2000, -92.019
1608.4000, -83.347
1608.6000, -84.054
1608.8000,-210.000
1609.0000,-210.000
1609.2000, -86.152
1609.4000, -87.758
1609.6000,-210.000
1609.8000, -89.177
1610.0000, -93.050
1610.2000, -85.858
1610.4000, -86.698
1610.6000, -84.718
1610.8000,-210.000
1611.0000, -88.750
1611.2000,-210.000
1611.4000, -87.941
1611.6000, -84.430
1611.8000, -89.348
1612.0000, -87.031
1612.2000,-210.000
1612.4000, -81.960
1612.6000, -84.679
1612.8000, -92.155
1613.0000, -84.220
1613.2000, -83.658
1613.4000,-210.000
1613.6000,-210.000
1613.8000,-210.000
1614.0000, -92.164
1614.2000, -85.397
1614.4000, -86.768
1614.6000,-210.000
1614.8000, -81.253
1615.0000,-210.000
1615.2000,-210.000
1615.4000, -90.366
1615.6000,-210.000
1615.8000, -90.256
1616.0000, -84.019
1616.2000,-210.000
1616.4000, -86.787
1616.6000, -84.958
1616.8000, -83.902
1617.0000, -82.709
1617.2000, -86.291
1617.4000, -95.007
1617.6000, -88.478
1617.8000, -87.081
1618.0000,-210.000
1618.2000, -93.099
1618.4000, -96.123
1618.6000, -84.828
1618.8000, -86.076
1619.0000,-101.423
1619.2000, -85.074
1619.4000,-210.000
1619.6000,-210.000
1619.8000, -90.501
1620.0000,-210.000
1620.2000, -85.269
1620.4000, -96.685
1620.6000,-106.144
1620.8000,-210.000
1621.0000, -84.379
1621.2000,-210.000
1621.4000, -95.632
1621.6000,-210.000
1621.8000, -87.060
1622.0000, -94.949
1622.2000, -82.439
1622.4000, -88.333
1622.6000, -90.477
1622.8000,-210.000
1623.0000, -80.731
1623.2000, -87.782
1623.4000, -90.125
1623.6000, -87.440
1623.8000,-210.000
1624.0000, -87.647
1624.2000, -83.527
1624.4000,-210.000
1624.6000,-210.000
1624.8000,-210.000
1625.0000, -86.556
1625.2000, -84.464
1625.4000,-210.000
1625.6000, -98.749
1625.8000,-210.000
1626.0000, -86.288
1626.2000, -88.079
1626.4000,-210.000
1626.6000,-210.000
1626.8000,-210.000
1627.0000, -84.890
1627.2000, -81.495
1627.4000, -86.135
1627.6000, -91.490
1627.8000,-210.000
1628.0000,-210.000
1628.2000, -88.368
1628.4000,-210.000
1628.6000,-210.000
1628.8000,-210.000
1629.0000, -85.957
1629.2000, -85.565
1629.4000, -83.848
1629.6000,-210.000
1629.8000, -86.725
1630.0000, -86.214
1630.2000,-210.000
1630.4000, -87.448
1630.6000, -91.233
1630.8000, -81.444
1631.0000, -86.282
1631.2000, -83.037
1631.4000,-210.000
1631.6000,-210.000
1631.8000,-210.000
1632.0000, -82.788
1632.2000,-210.000
1632.4000,-210.000
1632.6000, -83.189
1632.8000, -86.821
1633.0000, -82.655
1633.2000, -87.272
1633.4000,-210.000
1633.6000,-210.000
1633.8000, -96.366
1634.0000,-210.000
1634.2000,-210.000
1634.4000, -89.111
1634.6000, -86.292
1634.8000, -85.778
1635.0000,-210.000
1635.2000, -88.865
1635.4000, -90.366
1635.6000, -83.274
1635.8000, -82.890
1636.0000, -82.669
1636.2000,-210.000
1636.4000, -81.759
1636.6000, -90.998
1636.8000, -83.264
1637.0000,-210.000
1637.2000, -98.714
1637.4000, -90.897
1637.6000, -83.302
1637.8000, -84.491
1638.0000, -88.394
1638.2000,-210.000
1638.4000,-210.000
1638.6000,-210.000
1638.8000, -91.904
1639.0000,-210.000
1639.2000, -88.217
1639.4000,-210.000
1639.6000, -88.944
1639.8000, -88.551
1640.0000, -89.064
1640.2000,-210.000
1640.4000, -85.360
1640.6000,-210.000
1640.8000, -92.195
1641.0000, -93.626
1641.2000, -84.082
1641.4000, -85.070
1641.6000, -82.953
1641.8000, -88.883
1642.0000, -91.158
1642.2000, -86.539
1642.4000,-210.000
1642.6000,-210.000
1642.8000,-210.000
1643.0000,-210.000
1643.2000,-210.000
1643.4000,-210.000
1643.6000, -88.963
1643.8000,-210.000
1644.0000, -86.311
1644.2000,-210.000
1644.4000,-210.000
1644.6000,-210.000
1644.8000,-210.000
1645.0000,-210.000
1645.2000, -84.759
1645.4000, -90.810
1645.6000, -87.779
1645.8000,-101.600
1646.0000, -85.742
1646.2000, -90.371
1646.4000, -83.200
1646.6000, -84.618
1646.8000, -95.766
1647.0000, -86.195
1647.2000, -84.258
1647.4000, -83.004
1647.6000, -86.924
1647.8000, -84.587
1648.0000, -84.243
1648.2000,-210.000
1648.4000, -84.660
1648.6000,-210.000
1648.8000, -86.237
1649.0000, -91.841
1649.2000,-210.000
1649.4000,-210.000
1649.6000,-210.000
1649.8000,-210.000
1650.0000, -81.715
1650.2000, -85.871
1650.4000,-210.000
1650.6000, -90.436
1650.8000, -85.653
1651.0000, -92.958
1651.2000,-210.000
1651.4000,-210.000
1651.6000, -86.037
1651.8000,-210.000
1652.0000, -83.407
1652.2000, -85.474
1652.4000, -91.594
1652.6000, -83.210
1652.8000, -86.228
1653.0000,-210.000
1653.2000, -87.309
1653.4000, -89.370
1653.6000,-210.000
1653.8000, -83.570
1654.0000, -84.690
1654.2000, -87.003
1654.4000, -87.171
1654.6000, -81.968
1654.8000, -84.619
1655.0000, -83.177
1655.2000, -97.109
1655.4000, -85.394
1655.6000,-210.000
1655.8000,-210.000
1656.0000,-210.000
1656.2000,-210.000
1656.4000, -81.351
1656.6000, -84.442
1656.8000, -82.257
1657.0000,-210.000
1657.2000,-210.000
1657.4000,-210.000
1657.6000, -98.105
1657.8000, -83.734
1658.0000,-210.000
1658.2000,-210.000
1658.4000, -91.420
1658.6000,-210.000
1658.8000,-210.000
1659.0000, -88.766
1659.2000, -82.858
1659.4000,-210.000
1659.6000,-210.000
1659.8000, -88.083
1660.0000, -83.768
1660.2000,-210.000
1660.4000, -83.093
1660.6000,-210.000
1660.8000, -88.476
1661.0000, -86.152
1661.2000, -88.256
1661.4000, -85.806
1661.6000, -83.466
1661.8000, -80.892
1662.0000, -82.595
1662.2000, -85.754
1662.4000, -82.645
1662.6000,-210.000
1662.8000, -84.402
1663.0000,-210.000
1663.2000, -89.874
1663.4000,-104.322
1663.6000,-210.000
1663.8000,-210.000
1664.0000,-210.000
1664.2000,-210.000
1664.4000, -88.727
1664.6000, -79.341
1664.8000,-210.000
1665.0000, -85.092
1665.2000,-210.000
1665.4000,-210.000
1665.6000,-210.000
1665.8000, -82.963
1666.0000, -87.065
1666.2000,-210.000
1666.4000,-210.000
1666.6000, -92.894
1666.8000, -83.868
1667.0000, -82.022
1667.2000, -87.955
1667.4000, -82.803
1667.6000, -81.711
1667.8000, -84.251
1668.0000, -82.531
1668.2000,-210.000
1668.4000,-210.000
1668.6000,-210.000
1668.8000,-210.000
1669.0000, -84.381
1669.2000, -94.836
1669.4000,-210.000
1669.6000,-210.000
1669.8000, -85.047
1670.0000, -89.619
1670.2000,-210.000
1670.4000,-210.000
1670.6000,-210.000
1670.8000,-210.000
1671.0000,-210.000
1671.2000,-210.000
1671.4000, -87.267
1671.6000,-210.000
1671.8000,-210.000
1672.0000, -87.263
1672.2000, -80.303
1672.4000, -81.071
1672.6000, -83.701
1672.8000,-210.000
1673.0000, -88.205
1673.2000,-210.000
1673.4000,-210.000
1673.6000, -87.814
1673.8000,-210.000
1674.0000, -88.831
1674.2000, -77.375
1674.4000, -79.274
1674.6000, -85.179
1674.8000,-210.000
1675.0000, -80.419
1675.2000,-210.000
1675.4000,-210.000
1675.6000,-210.000
1675.8000,-210.000
1676.0000,-210.000
1676.2000, -84.423
1676.4000,-210.000
1676.6000, -81.194
1676.8000,-210.000
1677.0000,-210.000
1677.2000,-210.000
1677.4000,-210.000
1677.6000,-210.000
1677.8000,-210.000
1678.0000, -81.265
1678.2000, -85.121
1678.4000,-210.000
1678.6000,-210.000
1678.8000, -86.217
1679.0000, -77.029
1679.2000, -86.353
1679.4000, -82.337
1679.6000,-210.000
1679.8000, -81.830
1680.0000,-210.000
1680.2000,-210.000
1680.4000,-210.000
1680.6000, -87.160
1680.8000, -87.538
1681.0000, -84.031
1681.2000, -79.457
1681.4000, -83.927
1681.6000,-210.000
1681.8000,-210.000
1682.0000, -81.096
1682.2000, -80.013
1682.4000,-210.000
1682.6000, -81.844
1682.8000, -78.852
1683.0000,-210.000
1683.2000, -76.907
1683.4000,-210.000
1683.6000,-210.000
1683.8000,-210.000
1684.0000, -81.347
1684.2000, -79.949
1684.4000, -77.845
1684.6000, -82.555
1684.8000,-210.000
1685.0000,-210.000
1685.2000,-210.000
1685.4000, -78.596
1685.6000, -77.520
1685.8000,-210.000
1686.0000,-210.000
1686.2000,-210.000
1686.4000, -85.256
1686.6000,-210.000
1686.8000,-210.000
1687.0000, -90.386
1687.2000, -80.249
1687.4000,-210.000
1687.6000,-210.000
1687.8000,-210.000
1688.0000,-210.000
1688.2000,-210.000
1688.4000, -79.134
1688.6000,-210.000
1688.8000,-210.000
1689.0000,-210.000
1689.2000,-210.000
1689.4000,-210.000
1689.6000, -83.660
1689.8000, -79.820
1690.0000,-210.000
1690.2000,-210.000
1690.4000,-210.000
1690.6000, -80.514
1690.8000,-210.000
1691.0000,-210.000
1691.2000,-210.000
1691.4000,-210.000
1691.6000,-210.000
1691.8000, -74.216
1692.0000,-210.000
1692.2000,-210.000
1692.4000,-210.000
1692.6000, -78.047
1692.8000,-210.000
1693.0000, -79.497
1693.2000,-210.000
1693.4000,-210.000
1693.6000,-210.000
1693.8000,-210.000
1694.0000, -77.637
1694.2000,-210.000
1694.4000, -85.688
1694.6000,-210.000
1694.8000,-210.000
1695.0000, -80.656
1695.2000, -77.721
1695.4000,-210.000
1695.6000, -86.638
1695.8000,-210.000
1696.0000,-210.000
1696.2000, -90.168
1696.4000,-210.000
1696.6000, -79.494
1696.8000,-210.000
1697.0000,-210.000
1697.2000,-210.000
1697.4000,-210.000
1697.6000,-210.000
1697.8000, -82.696
1698.0000,-210.000
1698.2000, -83.178
1698.4000,-210.000
1698.6000,-210.000
1698.8000,-210.000
1699.0000, -84.390
1699.2000, -81.553
1699.4000,-210.000
1699.6000,-210.000
1699.8000, -74.868
1700.0000,-210.000
