74CSV  	
// AQ6374 OPTICAL SPECTRUM ANALYZER //                  
35
"CTRWL",1125.000000
"SPAN",1150.000000
"START WL", 550.000000
"STOP WL",1700.000000
"WLFREQ", 0
"REFL",-56.6
"LSCL", 5.0
"RESLN",1.000
"AVG",   1
"SMPLAUTO",      1
"SMPL",       5751
"SMPLINTVL",0.2000
"HIGH1"
"MEAS"
"LSUNT",0
"NMSKH","OFF"
"RESCOR",0
"SMOOTH",0
"MEASWL",1
"SWPSPD",0
"MODELNAME","AQ6374"
"CHGPT",        102
"RESCAL0_0",       9996
"RESCAL0_1",       -866
"RESCAL0_2",    1341521
"RESCAL1_0",      10053
"RESCAL1_1",          0
"RESCAL1_2",          0
"CORESIZE", 0






"[TRACE DATA]"
 550.0000, -70.202
 550.2000, -68.045
 550.4000, -70.489
 550.6000,-210.000
 550.8000, -78.784
 551.0000,-210.000
 551.2000,-210.000
 551.4000, -70.642
 551.6000, -71.032
 551.8000, -78.867
 552.0000,-210.000
 552.2000, -78.040
 552.4000, -74.223
 552.6000, -73.446
 552.8000, -70.821
 553.0000,-210.000
 553.2000, -73.364
 553.4000, -70.474
 553.6000, -75.555
 553.8000, -84.458
 554.0000, -66.869
 554.2000, -69.058
 554.4000, -69.239
 554.6000,-210.000
 554.8000, -74.812
 555.0000, -68.019
 555.2000, -68.202
 555.4000, -66.537
 555.6000,-210.000
 555.8000, -72.005
 556.0000, -70.477
 556.2000, -69.604
 556.4000, -65.938
 556.6000, -73.262
 556.8000,-210.000
 557.0000, -67.101
 557.2000,-210.000
 557.4000, -72.021
 557.6000, -68.624
 557.8000, -73.185
 558.0000, -68.663
 558.2000, -68.145
 558.4000,-210.000
 558.6000, -66.727
 558.8000, -67.015
 559.0000, -67.948
 559.2000, -68.842
 559.4000, -67.689
 559.6000, -73.237
 559.8000, -71.282
 560.0000,-210.000
 560.2000,-210.000
 560.4000, -70.199
 560.6000, -75.370
 560.8000, -88.180
 561.0000, -70.123
 561.2000, -68.001
 561.4000, -68.525
 561.6000, -71.165
 561.8000, -81.192
 562.0000,-210.000
 562.2000, -69.631
 562.4000, -72.031
 562.6000, -71.172
 562.8000, -71.013
 563.0000, -70.659
 563.2000, -77.852
 563.4000, -71.542
 563.6000, -67.114
 563.8000, -66.764
 564.0000, -68.842
 564.2000, -69.857
 564.4000, -70.261
 564.6000, -72.153
 564.8000, -70.667
 565.0000, -76.228
 565.2000, -69.251
 565.4000, -69.070
 565.6000, -69.718
 565.8000, -77.144
 566.0000, -70.263
 566.2000,-210.000
 566.4000, -70.016
 566.6000,-210.000
 566.8000, -66.362
 567.0000, -71.395
 567.2000, -77.048
 567.4000, -71.999
 567.6000,-210.000
 567.8000, -69.062
 568.0000, -66.128
 568.2000,-210.000
 568.4000, -70.576
 568.6000, -71.596
 568.8000, -70.131
 569.0000, -66.837
 569.2000, -65.981
 569.4000, -68.667
 569.6000, -77.347
 569.8000, -72.257
 570.0000, -67.971
 570.2000, -68.429
 570.4000, -69.005
 570.6000, -69.558
 570.8000, -66.691
 571.0000, -67.728
 571.2000, -67.796
 571.4000, -67.445
 571.6000, -68.205
 571.8000, -71.307
 572.0000, -69.084
 572.2000, -69.362
 572.4000, -66.843
 572.6000, -68.425
 572.8000, -68.064
 573.0000, -69.678
 573.2000, -67.834
 573.4000, -66.892
 573.6000, -65.209
 573.8000, -68.098
 574.0000, -66.851
 574.2000, -66.421
 574.4000, -66.247
 574.6000, -67.299
 574.8000, -66.332
 575.0000, -68.715
 575.2000, -68.295
 575.4000, -69.211
 575.6000, -69.114
 575.8000, -67.180
 576.0000, -65.185
 576.2000, -67.811
 576.4000, -65.785
 576.6000, -65.478
 576.8000, -67.266
 577.0000, -66.525
 577.2000, -65.138
 577.4000, -67.664
 577.6000, -66.613
 577.8000, -66.108
 578.0000, -65.959
 578.2000, -65.596
 578.4000, -65.857
 578.6000, -67.886
 578.8000, -65.959
 579.0000, -66.435
 579.2000, -66.520
 579.4000, -65.493
 579.6000, -66.001
 579.8000, -65.329
 580.0000, -65.448
 580.2000, -65.312
 580.4000, -65.033
 580.6000, -65.781
 580.8000, -65.586
 581.0000, -67.063
 581.2000, -65.043
 581.4000, -66.224
 581.6000, -65.390
 581.8000, -66.259
 582.0000, -66.827
 582.2000, -64.584
 582.4000, -64.649
 582.6000, -64.681
 582.8000, -65.164
 583.0000, -64.392
 583.2000, -64.831
 583.4000, -64.416
 583.6000, -64.631
 583.8000, -63.989
 584.0000, -64.261
 584.2000, -64.535
 584.4000, -65.395
 584.6000, -65.979
 584.8000, -64.917
 585.0000, -64.707
 585.2000, -63.445
 585.4000, -64.512
 585.6000, -64.057
 585.8000, -64.774
 586.0000, -64.169
 586.2000, -64.335
 586.4000, -63.367
 586.6000, -64.640
 586.8000, -64.990
 587.0000, -63.840
 587.2000, -63.614
 587.4000, -63.338
 587.6000, -63.876
 587.8000, -64.035
 588.0000, -63.428
 588.2000, -62.846
 588.4000, -63.800
 588.6000, -63.179
 588.8000, -63.568
 589.0000, -63.442
 589.2000, -63.426
 589.4000, -62.365
 589.6000, -63.171
 589.8000, -63.303
 590.0000, -63.214
 590.2000, -62.681
 590.4000, -62.703
 590.6000, -62.709
 590.8000, -62.788
 591.0000, -62.592
 591.2000, -62.302
 591.4000, -62.846
 591.6000, -62.899
 591.8000, -61.679
 592.0000, -62.706
 592.2000, -62.441
 592.4000, -62.758
 592.6000, -62.427
 592.8000, -62.255
 593.0000, -62.029
 593.2000, -62.666
 593.4000, -61.960
 593.6000, -62.236
 593.8000, -62.400
 594.0000, -62.250
 594.2000, -61.752
 594.4000, -61.741
 594.6000, -61.568
 594.8000, -61.499
 595.0000, -61.264
 595.2000, -61.331
 595.4000, -61.804
 595.6000, -61.280
 595.8000, -61.194
 596.0000, -61.376
 596.2000, -60.834
 596.4000, -61.227
 596.6000, -61.369
 596.8000, -61.283
 597.0000, -60.905
 597.2000, -60.736
 597.4000, -60.685
 597.6000, -61.104
 597.8000, -60.569
 598.0000, -61.172
 598.2000, -60.630
 598.4000, -61.106
 598.6000, -60.800
 598.8000, -60.788
 599.0000, -60.816
 599.2000, -60.544
 599.4000, -60.410
 599.6000, -60.359
 599.8000, -60.613
 600.0000, -60.398
 600.2000, -60.258
 600.4000, -60.219
 600.6000, -60.198
 600.8000, -59.983
 601.0000, -60.037
 601.2000, -59.813
 601.4000, -60.009
 601.6000, -59.835
 601.8000, -59.837
 602.0000, -59.583
 602.2000, -60.013
 602.4000, -59.682
 602.6000, -59.611
 602.8000, -59.593
 603.0000, -59.989
 603.2000, -59.751
 603.4000, -59.820
 603.6000, -59.565
 603.8000, -59.575
 604.0000, -59.327
 604.2000, -59.270
 604.4000, -59.557
 604.6000, -59.421
 604.8000, -59.369
 605.0000, -59.271
 605.2000, -59.015
 605.4000, -59.216
 605.6000, -59.015
 605.8000, -58.920
 606.0000, -58.649
 606.2000, -58.704
 606.4000, -58.555
 606.6000, -58.696
 606.8000, -58.546
 607.0000, -58.672
 607.2000, -58.552
 607.4000, -58.340
 607.6000, -58.492
 607.8000, -58.247
 608.0000, -58.400
 608.2000, -58.386
 608.4000, -58.346
 608.6000, -58.113
 608.8000, -58.216
 609.0000, -58.222
 609.2000, -58.308
 609.4000, -57.953
 609.6000, -58.051
 609.8000, -57.998
 610.0000, -57.821
 610.2000, -57.799
 610.4000, -57.560
 610.6000, -57.739
 610.8000, -57.743
 611.0000, -57.622
 611.2000, -57.582
 611.4000, -57.409
 611.6000, -57.278
 611.8000, -57.269
 612.0000, -57.395
 612.2000, -57.214
 612.4000, -57.032
 612.6000, -57.095
 612.8000, -57.140
 613.0000, -57.081
 613.2000, -56.937
 613.4000, -56.848
 613.6000, -56.823
 613.8000, -56.757
 614.0000, -57.035
 614.2000, -56.754
 614.4000, -56.860
 614.6000, -56.702
 614.8000, -56.663
 615.0000, -56.671
 615.2000, -56.548
 615.4000, -56.516
 615.6000, -56.472
 615.8000, -56.453
 616.0000, -56.343
 616.2000, -56.248
 616.4000, -56.155
 616.6000, -56.278
 616.8000, -56.092
 617.0000, -56.081
 617.2000, -55.864
 617.4000, -55.789
 617.6000, -55.893
 617.8000, -55.684
 618.0000, -55.707
 618.2000, -55.759
 618.4000, -55.704
 618.6000, -55.495
 618.8000, -55.583
 619.0000, -55.530
 619.2000, -55.450
 619.4000, -55.518
 619.6000, -55.357
 619.8000, -55.381
 620.0000, -55.361
 620.2000, -55.205
 620.4000, -55.099
 620.6000, -55.113
 620.8000, -55.093
 621.0000, -55.127
 621.2000, -54.985
 621.4000, -54.981
 621.6000, -54.931
 621.8000, -54.713
 622.0000, -54.614
 622.2000, -54.731
 622.4000, -54.700
 622.6000, -54.654
 622.8000, -54.612
 623.0000, -54.578
 623.2000, -54.383
 623.4000, -54.463
 623.6000, -54.426
 623.8000, -54.400
 624.0000, -54.293
 624.2000, -54.228
 624.4000, -54.137
 624.6000, -53.977
 624.8000, -54.121
 625.0000, -54.066
 625.2000, -53.943
 625.4000, -53.892
 625.6000, -54.039
 625.8000, -53.846
 626.0000, -53.780
 626.2000, -53.776
 626.4000, -53.716
 626.6000, -53.708
 626.8000, -53.717
 627.0000, -53.569
 627.2000, -53.565
 627.4000, -53.591
 627.6000, -53.528
 627.8000, -53.531
 628.0000, -53.421
 628.2000, -53.355
 628.4000, -53.351
 628.6000, -53.197
 628.8000, -53.312
 629.0000, -53.108
 629.2000, -53.043
 629.4000, -53.181
 629.6000, -53.144
 629.8000, -52.950
 630.0000, -53.028
 630.2000, -52.838
 630.4000, -52.778
 630.6000, -52.747
 630.8000, -52.760
 631.0000, -52.763
 631.2000, -52.612
 631.4000, -52.649
 631.6000, -52.581
 631.8000, -52.717
 632.0000, -52.517
 632.2000, -52.501
 632.4000, -52.358
 632.6000, -52.344
 632.8000, -52.237
 633.0000, -52.396
 633.2000, -52.288
 633.4000, -52.227
 633.6000, -52.259
 633.8000, -52.183
 634.0000, -52.148
 634.2000, -52.060
 634.4000, -52.034
 634.6000, -51.970
 634.8000, -52.013
 635.0000, -51.894
 635.2000, -51.876
 635.4000, -51.851
 635.6000, -51.809
 635.8000, -51.819
 636.0000, -51.668
 636.2000, -51.767
 636.4000, -51.653
 636.6000, -51.672
 636.8000, -51.533
 637.0000, -51.519
 637.2000, -51.506
 637.4000, -51.547
 637.6000, -51.516
 637.8000, -51.492
 638.0000, -51.373
 638.2000, -51.249
 638.4000, -51.334
 638.6000, -51.329
 638.8000, -51.248
 639.0000, -51.164
 639.2000, -51.175
 639.4000, -51.138
 639.6000, -51.129
 639.8000, -51.030
 640.0000, -51.054
 640.2000, -50.916
 640.4000, -51.034
 640.6000, -50.930
 640.8000, -50.917
 641.0000, -50.917
 641.2000, -50.896
 641.4000, -50.730
 641.6000, -50.733
 641.8000, -50.746
 642.0000, -50.844
 642.2000, -50.636
 642.4000, -50.667
 642.6000, -50.767
 642.8000, -50.592
 643.0000, -50.542
 643.2000, -50.631
 643.4000, -50.454
 643.6000, -50.455
 643.8000, -50.491
 644.0000, -50.418
 644.2000, -50.466
 644.4000, -50.430
 644.6000, -50.353
 644.8000, -50.320
 645.0000, -50.246
 645.2000, -50.472
 645.4000, -50.378
 645.6000, -50.345
 645.8000, -50.242
 646.0000, -50.295
 646.2000, -50.190
 646.4000, -50.227
 646.6000, -50.183
 646.8000, -50.252
 647.0000, -50.107
 647.2000, -50.095
 647.4000, -50.070
 647.6000, -50.002
 647.8000, -50.000
 648.0000, -50.031
 648.2000, -49.943
 648.4000, -49.933
 648.6000, -49.860
 648.8000, -49.972
 649.0000, -49.860
 649.2000, -49.854
 649.4000, -49.846
 649.6000, -49.855
 649.8000, -49.791
 650.0000, -49.803
 650.2000, -49.777
 650.4000, -49.617
 650.6000, -49.663
 650.8000, -49.645
 651.0000, -49.674
 651.2000, -49.596
 651.4000, -49.590
 651.6000, -49.583
 651.8000, -49.586
 652.0000, -49.556
 652.2000, -49.538
 652.4000, -49.577
 652.6000, -49.530
 652.8000, -49.447
 653.0000, -49.455
 653.2000, -49.472
 653.4000, -49.439
 653.6000, -49.443
 653.8000, -49.339
 654.0000, -49.288
 654.2000, -49.403
 654.4000, -49.270
 654.6000, -49.355
 654.8000, -49.263
 655.0000, -49.260
 655.2000, -49.200
 655.4000, -49.256
 655.6000, -49.216
 655.8000, -49.185
 656.0000, -49.292
 656.2000, -49.184
 656.4000, -49.049
 656.6000, -49.114
 656.8000, -49.209
 657.0000, -49.123
 657.2000, -49.107
 657.4000, -49.195
 657.6000, -49.055
 657.8000, -48.972
 658.0000, -49.080
 658.2000, -49.045
 658.4000, -48.943
 658.6000, -48.976
 658.8000, -49.045
 659.0000, -49.159
 659.2000, -48.868
 659.4000, -48.991
 659.6000, -48.885
 659.8000, -49.010
 660.0000, -48.947
 660.2000, -48.922
 660.4000, -48.892
 660.6000, -48.883
 660.8000, -48.907
 661.0000, -48.739
 661.2000, -48.877
 661.4000, -48.765
 661.6000, -48.869
 661.8000, -48.889
 662.0000, -48.681
 662.2000, -48.907
 662.4000, -48.710
 662.6000, -48.821
 662.8000, -48.764
 663.0000, -48.685
 663.2000, -48.698
 663.4000, -48.679
 663.6000, -48.703
 663.8000, -48.757
 664.0000, -48.577
 664.2000, -48.622
 664.4000, -48.640
 664.6000, -48.565
 664.8000, -48.542
 665.0000, -48.620
 665.2000, -48.532
 665.4000, -48.542
 665.6000, -48.513
 665.8000, -48.485
 666.0000, -48.449
 666.2000, -48.597
 666.4000, -48.556
 666.6000, -48.415
 666.8000, -48.516
 667.0000, -48.484
 667.2000, -48.426
 667.4000, -48.432
 667.6000, -48.408
 667.8000, -48.409
 668.0000, -48.580
 668.2000, -48.545
 668.4000, -48.391
 668.6000, -48.449
 668.8000, -48.350
 669.0000, -48.433
 669.2000, -48.437
 669.4000, -48.456
 669.6000, -48.418
 669.8000, -48.390
 670.0000, -48.435
 670.2000, -48.365
 670.4000, -48.324
 670.6000, -48.276
 670.8000, -48.362
 671.0000, -48.342
 671.2000, -48.303
 671.4000, -48.273
 671.6000, -48.341
 671.8000, -48.183
 672.0000, -48.308
 672.2000, -48.222
 672.4000, -48.249
 672.6000, -48.189
 672.8000, -48.228
 673.0000, -48.206
 673.2000, -48.176
 673.4000, -48.322
 673.6000, -48.221
 673.8000, -48.251
 674.0000, -48.128
 674.2000, -48.194
 674.4000, -48.161
 674.6000, -48.211
 674.8000, -48.222
 675.0000, -48.225
 675.2000, -48.118
 675.4000, -48.089
 675.6000, -48.182
 675.8000, -48.112
 676.0000, -48.044
 676.2000, -48.065
 676.4000, -48.160
 676.6000, -48.034
 676.8000, -48.209
 677.0000, -48.042
 677.2000, -48.185
 677.4000, -48.162
 677.6000, -48.118
 677.8000, -48.081
 678.0000, -48.180
 678.2000, -48.097
 678.4000, -48.088
 678.6000, -48.205
 678.8000, -48.112
 679.0000, -48.042
 679.2000, -48.049
 679.4000, -48.081
 679.6000, -48.067
 679.8000, -48.207
 680.0000, -48.119
 680.2000, -48.082
 680.4000, -48.163
 680.6000, -47.949
 680.8000, -47.961
 681.0000, -48.042
 681.2000, -48.036
 681.4000, -47.985
 681.6000, -48.023
 681.8000, -47.979
 682.0000, -47.991
 682.2000, -48.034
 682.4000, -47.949
 682.6000, -47.937
 682.8000, -48.040
 683.0000, -48.077
 683.2000, -47.963
 683.4000, -48.191
 683.6000, -48.058
 683.8000, -48.024
 684.0000, -47.881
 684.2000, -47.913
 684.4000, -47.992
 684.6000, -47.943
 684.8000, -48.061
 685.0000, -47.957
 685.2000, -48.064
 685.4000, -48.075
 685.6000, -48.067
 685.8000, -47.983
 686.0000, -48.007
 686.2000, -48.016
 686.4000, -47.873
 686.6000, -47.914
 686.8000, -48.137
 687.0000, -48.001
 687.2000, -47.930
 687.4000, -47.959
 687.6000, -47.885
 687.8000, -47.902
 688.0000, -47.913
 688.2000, -47.909
 688.4000, -47.869
 688.6000, -48.068
 688.8000, -47.980
 689.0000, -47.999
 689.2000, -47.935
 689.4000, -48.065
 689.6000, -48.009
 689.8000, -47.881
 690.0000, -47.952
 690.2000, -47.967
 690.4000, -48.047
 690.6000, -47.897
 690.8000, -48.024
 691.0000, -47.974
 691.2000, -47.991
 691.4000, -47.999
 691.6000, -47.932
 691.8000, -47.952
 692.0000, -47.942
 692.2000, -48.084
 692.4000, -48.002
 692.6000, -47.957
 692.8000, -47.917
 693.0000, -48.039
 693.2000, -47.952
 693.4000, -48.000
 693.6000, -48.096
 693.8000, -48.048
 694.0000, -47.949
 694.2000, -48.009
 694.4000, -47.991
 694.6000, -48.126
 694.8000, -48.135
 695.0000, -48.086
 695.2000, -48.095
 695.4000, -47.989
 695.6000, -47.957
 695.8000, -47.989
 696.0000, -48.026
 696.2000, -47.985
 696.4000, -48.105
 696.6000, -48.151
 696.8000, -48.009
 697.0000, -48.097
 697.2000, -48.003
 697.4000, -48.102
 697.6000, -48.118
 697.8000, -48.105
 698.0000, -47.993
 698.2000, -48.050
 698.4000, -48.055
 698.6000, -48.117
 698.8000, -48.176
 699.0000, -48.061
 699.2000, -48.096
 699.4000, -48.117
 699.6000, -48.160
 699.8000, -48.106
 700.0000, -48.339
 700.2000, -48.225
 700.4000, -48.125
 700.6000, -48.066
 700.8000, -48.283
 701.0000, -48.294
 701.2000, -48.100
 701.4000, -48.103
 701.6000, -48.093
 701.8000, -48.165
 702.0000, -48.108
 702.2000, -48.164
 702.4000, -48.212
 702.6000, -48.273
 702.8000, -48.300
 703.0000, -48.318
 703.2000, -48.321
 703.4000, -48.182
 703.6000, -48.244
 703.8000, -48.161
 704.0000, -48.158
 704.2000, -48.209
 704.4000, -48.208
 704.6000, -48.207
 704.8000, -48.296
 705.0000, -48.311
 705.2000, -48.195
 705.4000, -48.305
 705.6000, -48.316
 705.8000, -48.438
 706.0000, -48.303
 706.2000, -48.384
 706.4000, -48.421
 706.6000, -48.428
 706.8000, -48.411
 707.0000, -48.419
 707.2000, -48.342
 707.4000, -48.439
 707.6000, -48.445
 707.8000, -48.494
 708.0000, -48.425
 708.2000, -48.422
 708.4000, -48.471
 708.6000, -48.403
 708.8000, -48.489
 709.0000, -48.520
 709.2000, -48.538
 709.4000, -48.604
 709.6000, -48.544
 709.8000, -48.649
 710.0000, -48.510
 710.2000, -48.588
 710.4000, -48.555
 710.6000, -48.582
 710.8000, -48.508
 711.0000, -48.560
 711.2000, -48.626
 711.4000, -48.655
 711.6000, -48.579
 711.8000, -48.558
 712.0000, -48.623
 712.2000, -48.651
 712.4000, -48.725
 712.6000, -48.738
 712.8000, -48.851
 713.0000, -48.607
 713.2000, -48.752
 713.4000, -48.897
 713.6000, -48.765
 713.8000, -48.735
 714.0000, -48.818
 714.2000, -48.876
 714.4000, -48.671
 714.6000, -48.896
 714.8000, -48.747
 715.0000, -48.852
 715.2000, -48.824
 715.4000, -49.014
 715.6000, -48.747
 715.8000, -48.820
 716.0000, -48.892
 716.2000, -48.736
 716.4000, -48.856
 716.6000, -48.853
 716.8000, -49.033
 717.0000, -48.828
 717.2000, -49.031
 717.4000, -48.935
 717.6000, -48.923
 717.8000, -48.850
 718.0000, -49.032
 718.2000, -49.041
 718.4000, -49.185
 718.6000, -48.977
 718.8000, -49.200
 719.0000, -49.096
 719.2000, -49.176
 719.4000, -49.161
 719.6000, -49.113
 719.8000, -49.149
 720.0000, -48.949
 720.2000, -49.243
 720.4000, -49.066
 720.6000, -49.230
 720.8000, -49.115
 721.0000, -49.189
 721.2000, -49.094
 721.4000, -49.266
 721.6000, -49.173
 721.8000, -49.134
 722.0000, -49.235
 722.2000, -49.211
 722.4000, -49.254
 722.6000, -49.210
 722.8000, -49.346
 723.0000, -49.211
 723.2000, -49.410
 723.4000, -49.336
 723.6000, -49.333
 723.8000, -49.248
 724.0000, -49.317
 724.2000, -49.208
 724.4000, -49.375
 724.6000, -49.332
 724.8000, -49.419
 725.0000, -49.330
 725.2000, -49.346
 725.4000, -49.428
 725.6000, -49.444
 725.8000, -49.434
 726.0000, -49.295
 726.2000, -49.457
 726.4000, -49.460
 726.6000, -49.570
 726.8000, -49.488
 727.0000, -49.568
 727.2000, -49.431
 727.4000, -49.501
 727.6000, -49.576
 727.8000, -49.612
 728.0000, -49.600
 728.2000, -49.528
 728.4000, -49.577
 728.6000, -49.625
 728.8000, -49.575
 729.0000, -49.548
 729.2000, -49.691
 729.4000, -49.591
 729.6000, -49.643
 729.8000, -49.632
 730.0000, -49.727
 730.2000, -49.595
 730.4000, -49.752
 730.6000, -49.639
 730.8000, -49.625
 731.0000, -49.590
 731.2000, -49.716
 731.4000, -49.757
 731.6000, -49.716
 731.8000, -49.837
 732.0000, -49.687
 732.2000, -49.818
 732.4000, -49.698
 732.6000, -49.832
 732.8000, -49.764
 733.0000, -49.895
 733.2000, -49.833
 733.4000, -49.870
 733.6000, -49.830
 733.8000, -49.775
 734.0000, -49.915
 734.2000, -49.905
 734.4000, -49.949
 734.6000, -49.883
 734.8000, -50.030
 735.0000, -49.996
 735.2000, -49.961
 735.4000, -49.998
 735.6000, -49.937
 735.8000, -49.973
 736.0000, -49.970
 736.2000, -49.999
 736.4000, -49.988
 736.6000, -49.955
 736.8000, -50.035
 737.0000, -50.055
 737.2000, -49.912
 737.4000, -50.025
 737.6000, -50.051
 737.8000, -49.989
 738.0000, -50.192
 738.2000, -50.110
 738.4000, -50.073
 738.6000, -50.188
 738.8000, -50.079
 739.0000, -50.062
 739.2000, -50.168
 739.4000, -50.200
 739.6000, -50.191
 739.8000, -50.118
 740.0000, -50.189
 740.2000, -50.393
 740.4000, -50.155
 740.6000, -50.307
 740.8000, -50.121
 741.0000, -50.386
 741.2000, -50.200
 741.4000, -50.381
 741.6000, -50.338
 741.8000, -50.323
 742.0000, -50.363
 742.2000, -50.325
 742.4000, -50.321
 742.6000, -50.355
 742.8000, -50.422
 743.0000, -50.332
 743.2000, -50.289
 743.4000, -50.305
 743.6000, -50.340
 743.8000, -50.307
 744.0000, -50.457
 744.2000, -50.365
 744.4000, -50.448
 744.6000, -50.463
 744.8000, -50.405
 745.0000, -50.576
 745.2000, -50.480
 745.4000, -50.465
 745.6000, -50.547
 745.8000, -50.512
 746.0000, -50.363
 746.2000, -50.496
 746.4000, -50.513
 746.6000, -50.479
 746.8000, -50.527
 747.0000, -50.486
 747.2000, -50.463
 747.4000, -50.496
 747.6000, -50.618
 747.8000, -50.472
 748.0000, -50.599
 748.2000, -50.626
 748.4000, -50.663
 748.6000, -50.603
 748.8000, -50.704
 749.0000, -50.774
 749.2000, -50.690
 749.4000, -50.599
 749.6000, -50.629
 749.8000, -50.696
 750.0000, -50.679
 750.2000, -50.842
 750.4000, -50.775
 750.6000, -50.654
 750.8000, -50.805
 751.0000, -50.657
 751.2000, -50.801
 751.4000, -50.829
 751.6000, -50.885
 751.8000, -50.746
 752.0000, -50.842
 752.2000, -50.840
 752.4000, -50.852
 752.6000, -50.815
 752.8000, -50.850
 753.0000, -50.913
 753.2000, -50.844
 753.4000, -50.837
 753.6000, -50.972
 753.8000, -50.983
 754.0000, -51.071
 754.2000, -51.091
 754.4000, -50.883
 754.6000, -50.970
 754.8000, -51.027
 755.0000, -50.927
 755.2000, -50.924
 755.4000, -50.973
 755.6000, -50.979
 755.8000, -51.023
 756.0000, -51.083
 756.2000, -50.999
 756.4000, -51.065
 756.6000, -51.169
 756.8000, -51.037
 757.0000, -51.192
 757.2000, -51.044
 757.4000, -51.135
 757.6000, -51.143
 757.8000, -51.096
 758.0000, -51.141
 758.2000, -51.164
 758.4000, -51.241
 758.6000, -51.215
 758.8000, -51.183
 759.0000, -51.266
 759.2000, -51.168
 759.4000, -51.251
 759.6000, -51.150
 759.8000, -51.306
 760.0000, -51.302
 760.2000, -51.189
 760.4000, -51.242
 760.6000, -51.307
 760.8000, -51.306
 761.0000, -51.417
 761.2000, -51.294
 761.4000, -51.306
 761.6000, -51.355
 761.8000, -51.359
 762.0000, -51.292
 762.2000, -51.337
 762.4000, -51.348
 762.6000, -51.386
 762.8000, -51.344
 763.0000, -51.291
 763.2000, -51.339
 763.4000, -51.443
 763.6000, -51.542
 763.8000, -51.444
 764.0000, -51.631
 764.2000, -51.446
 764.4000, -51.552
 764.6000, -51.482
 764.8000, -51.532
 765.0000, -51.608
 765.2000, -51.598
 765.4000, -51.604
 765.6000, -51.569
 765.8000, -51.587
 766.0000, -51.558
 766.2000, -51.588
 766.4000, -51.514
 766.6000, -51.700
 766.8000, -51.704
 767.0000, -51.630
 767.2000, -51.681
 767.4000, -51.746
 767.6000, -51.718
 767.8000, -51.663
 768.0000, -51.656
 768.2000, -51.709
 768.4000, -51.701
 768.6000, -51.819
 768.8000, -51.819
 769.0000, -51.696
 769.2000, -51.710
 769.4000, -51.784
 769.6000, -51.861
 769.8000, -51.758
 770.0000, -51.789
 770.2000, -51.880
 770.4000, -51.870
 770.6000, -51.845
 770.8000, -51.948
 771.0000, -51.766
 771.2000, -51.837
 771.4000, -51.882
 771.6000, -51.907
 771.8000, -51.867
 772.0000, -52.031
 772.2000, -51.768
 772.4000, -51.998
 772.6000, -51.987
 772.8000, -51.920
 773.0000, -52.066
 773.2000, -52.134
 773.4000, -52.024
 773.6000, -52.071
 773.8000, -52.130
 774.0000, -51.988
 774.2000, -52.023
 774.4000, -52.101
 774.6000, -52.002
 774.8000, -52.148
 775.0000, -51.981
 775.2000, -52.014
 775.4000, -52.244
 775.6000, -52.090
 775.8000, -52.018
 776.0000, -52.091
 776.2000, -52.266
 776.4000, -52.172
 776.6000, -52.236
 776.8000, -52.028
 777.0000, -52.132
 777.2000, -52.302
 777.4000, -52.262
 777.6000, -52.272
 777.8000, -52.339
 778.0000, -52.233
 778.2000, -52.209
 778.4000, -52.275
 778.6000, -52.394
 778.8000, -52.287
 779.0000, -52.398
 779.2000, -52.432
 779.4000, -52.466
 779.6000, -52.339
 779.8000, -52.430
 780.0000, -52.390
 780.2000, -52.450
 780.4000, -52.397
 780.6000, -52.416
 780.8000, -52.483
 781.0000, -52.481
 781.2000, -52.495
 781.4000, -52.473
 781.6000, -52.512
 781.8000, -52.389
 782.0000, -52.543
 782.2000, -52.505
 782.4000, -52.570
 782.6000, -52.444
 782.8000, -52.547
 783.0000, -52.478
 783.2000, -52.550
 783.4000, -52.554
 783.6000, -52.609
 783.8000, -52.669
 784.0000, -52.602
 784.2000, -52.627
 784.4000, -52.733
 784.6000, -52.586
 784.8000, -52.680
 785.0000, -52.707
 785.2000, -52.811
 785.4000, -52.761
 785.6000, -52.807
 785.8000, -52.807
 786.0000, -52.828
 786.2000, -52.898
 786.4000, -52.827
 786.6000, -52.793
 786.8000, -52.674
 787.0000, -52.922
 787.2000, -52.825
 787.4000, -52.863
 787.6000, -52.826
 787.8000, -52.840
 788.0000, -52.839
 788.2000, -53.054
 788.4000, -52.914
 788.6000, -53.016
 788.8000, -52.930
 789.0000, -52.918
 789.2000, -52.927
 789.4000, -52.972
 789.6000, -53.098
 789.8000, -53.096
 790.0000, -53.031
 790.2000, -53.091
 790.4000, -53.010
 790.6000, -53.028
 790.8000, -53.035
 791.0000, -53.005
 791.2000, -53.086
 791.4000, -53.126
 791.6000, -53.028
 791.8000, -53.136
 792.0000, -53.107
 792.2000, -53.159
 792.4000, -53.311
 792.6000, -53.309
 792.8000, -53.232
 793.0000, -53.217
 793.2000, -53.274
 793.4000, -53.223
 793.6000, -53.115
 793.8000, -53.368
 794.0000, -53.282
 794.2000, -53.448
 794.4000, -53.252
 794.6000, -53.405
 794.8000, -53.418
 795.0000, -53.293
 795.2000, -53.361
 795.4000, -53.297
 795.6000, -53.529
 795.8000, -53.416
 796.0000, -53.498
 796.2000, -53.465
 796.4000, -53.284
 796.6000, -53.542
 796.8000, -53.605
 797.0000, -53.566
 797.2000, -53.390
 797.4000, -53.449
 797.6000, -53.446
 797.8000, -53.610
 798.0000, -53.499
 798.2000, -53.571
 798.4000, -53.602
 798.6000, -53.595
 798.8000, -53.688
 799.0000, -53.650
 799.2000, -53.569
 799.4000, -53.662
 799.6000, -53.713
 799.8000, -53.768
 800.0000, -53.591
 800.2000, -53.844
 800.4000, -53.813
 800.6000, -53.819
 800.8000, -53.658
 801.0000, -53.907
 801.2000, -53.905
 801.4000, -53.888
 801.6000, -53.846
 801.8000, -53.862
 802.0000, -53.890
 802.2000, -53.739
 802.4000, -53.829
 802.6000, -53.991
 802.8000, -53.911
 803.0000, -53.916
 803.2000, -53.972
 803.4000, -53.922
 803.6000, -54.037
 803.8000, -53.859
 804.0000, -54.027
 804.2000, -54.238
 804.4000, -53.939
 804.6000, -54.112
 804.8000, -54.039
 805.0000, -54.090
 805.2000, -54.170
 805.4000, -54.220
 805.6000, -54.173
 805.8000, -54.312
 806.0000, -54.164
 806.2000, -54.102
 806.4000, -54.154
 806.6000, -54.096
 806.8000, -54.022
 807.0000, -54.220
 807.2000, -54.190
 807.4000, -54.272
 807.6000, -54.301
 807.8000, -54.236
 808.0000, -54.226
 808.2000, -54.191
 808.4000, -54.065
 808.6000, -54.268
 808.8000, -54.317
 809.0000, -54.325
 809.2000, -54.342
 809.4000, -54.229
 809.6000, -54.422
 809.8000, -54.424
 810.0000, -54.504
 810.2000, -54.451
 810.4000, -54.507
 810.6000, -54.536
 810.8000, -54.429
 811.0000, -54.615
 811.2000, -54.551
 811.4000, -54.596
 811.6000, -54.506
 811.8000, -54.498
 812.0000, -54.450
 812.2000, -54.577
 812.4000, -54.532
 812.6000, -54.582
 812.8000, -54.547
 813.0000, -54.639
 813.2000, -54.574
 813.4000, -54.580
 813.6000, -54.763
 813.8000, -54.599
 814.0000, -54.719
 814.2000, -54.626
 814.4000, -54.783
 814.6000, -54.838
 814.8000, -54.754
 815.0000, -54.585
 815.2000, -54.769
 815.4000, -54.785
 815.6000, -54.835
 815.8000, -54.776
 816.0000, -54.816
 816.2000, -54.833
 816.4000, -54.814
 816.6000, -54.800
 816.8000, -54.889
 817.0000, -54.900
 817.2000, -54.833
 817.4000, -54.831
 817.6000, -54.946
 817.8000, -54.835
 818.0000, -54.849
 818.2000, -54.942
 818.4000, -54.796
 818.6000, -55.082
 818.8000, -54.988
 819.0000, -55.112
 819.2000, -54.968
 819.4000, -55.168
 819.6000, -55.094
 819.8000, -55.094
 820.0000, -55.232
 820.2000, -55.230
 820.4000, -55.172
 820.6000, -55.059
 820.8000, -55.100
 821.0000, -55.215
 821.2000, -55.098
 821.4000, -55.178
 821.6000, -55.259
 821.8000, -55.119
 822.0000, -55.168
 822.2000, -55.169
 822.4000, -55.324
 822.6000, -55.278
 822.8000, -55.356
 823.0000, -55.275
 823.2000, -55.381
 823.4000, -55.263
 823.6000, -55.350
 823.8000, -55.234
 824.0000, -55.406
 824.2000, -55.338
 824.4000, -55.457
 824.6000, -55.487
 824.8000, -55.447
 825.0000, -55.404
 825.2000, -55.433
 825.4000, -55.477
 825.6000, -55.502
 825.8000, -55.383
 826.0000, -55.445
 826.2000, -55.592
 826.4000, -55.396
 826.6000, -55.476
 826.8000, -55.536
 827.0000, -55.612
 827.2000, -55.475
 827.4000, -55.440
 827.6000, -55.484
 827.8000, -55.667
 828.0000, -55.626
 828.2000, -55.721
 828.4000, -55.679
 828.6000, -55.596
 828.8000, -55.756
 829.0000, -55.620
 829.2000, -55.697
 829.4000, -55.720
 829.6000, -55.777
 829.8000, -55.779
 830.0000, -55.742
 830.2000, -55.748
 830.4000, -55.610
 830.6000, -55.762
 830.8000, -55.761
 831.0000, -55.734
 831.2000, -55.781
 831.4000, -55.883
 831.6000, -55.920
 831.8000, -55.834
 832.0000, -55.806
 832.2000, -55.863
 832.4000, -55.911
 832.6000, -55.905
 832.8000, -55.842
 833.0000, -55.843
 833.2000, -55.898
 833.4000, -55.857
 833.6000, -56.036
 833.8000, -56.016
 834.0000, -55.888
 834.2000, -55.974
 834.4000, -56.055
 834.6000, -56.020
 834.8000, -56.010
 835.0000, -56.110
 835.2000, -56.046
 835.4000, -56.063
 835.6000, -55.913
 835.8000, -56.080
 836.0000, -56.101
 836.2000, -56.080
 836.4000, -56.100
 836.6000, -56.138
 836.8000, -56.005
 837.0000, -56.138
 837.2000, -56.201
 837.4000, -56.147
 837.6000, -56.156
 837.8000, -56.191
 838.0000, -56.137
 838.2000, -56.191
 838.4000, -56.237
 838.6000, -56.313
 838.8000, -56.258
 839.0000, -56.163
 839.2000, -56.150
 839.4000, -56.216
 839.6000, -56.303
 839.8000, -56.330
 840.0000, -56.257
 840.2000, -56.350
 840.4000, -56.348
 840.6000, -56.360
 840.8000, -56.486
 841.0000, -56.304
 841.2000, -56.436
 841.4000, -56.505
 841.6000, -56.366
 841.8000, -56.307
 842.0000, -56.243
 842.2000, -56.547
 842.4000, -56.567
 842.6000, -56.471
 842.8000, -56.517
 843.0000, -56.432
 843.2000, -56.587
 843.4000, -56.472
 843.6000, -56.609
 843.8000, -56.496
 844.0000, -56.438
 844.2000, -56.504
 844.4000, -56.509
 844.6000, -56.575
 844.8000, -56.690
 845.0000, -56.488
 845.2000, -56.585
 845.4000, -56.706
 845.6000, -56.741
 845.8000, -56.614
 846.0000, -56.625
 846.2000, -56.645
 846.4000, -56.816
 846.6000, -56.737
 846.8000, -56.813
 847.0000, -56.649
 847.2000, -56.684
 847.4000, -56.699
 847.6000, -56.743
 847.8000, -56.848
 848.0000, -56.718
 848.2000, -56.758
 848.4000, -56.766
 848.6000, -56.925
 848.8000, -56.810
 849.0000, -56.790
 849.2000, -56.737
 849.4000, -56.863
 849.6000, -56.729
 849.8000, -56.821
 850.0000, -56.950
 850.2000, -56.962
 850.4000, -56.852
 850.6000, -56.965
 850.8000, -56.872
 851.0000, -56.905
 851.2000, -56.958
 851.4000, -56.858
 851.6000, -56.973
 851.8000, -56.900
 852.0000, -56.954
 852.2000, -56.960
 852.4000, -56.844
 852.6000, -56.995
 852.8000, -57.038
 853.0000, -56.885
 853.2000, -56.857
 853.4000, -57.199
 853.6000, -57.170
 853.8000, -57.081
 854.0000, -56.880
 854.2000, -56.951
 854.4000, -56.929
 854.6000, -57.006
 854.8000, -56.970
 855.0000, -57.074
 855.2000, -57.120
 855.4000, -57.207
 855.6000, -57.224
 855.8000, -57.195
 856.0000, -57.154
 856.2000, -57.250
 856.4000, -57.204
 856.6000, -57.399
 856.8000, -57.230
 857.0000, -57.224
 857.2000, -57.135
 857.4000, -57.322
 857.6000, -57.211
 857.8000, -57.259
 858.0000, -57.257
 858.2000, -57.313
 858.4000, -57.455
 858.6000, -57.252
 858.8000, -57.335
 859.0000, -57.377
 859.2000, -57.265
 859.4000, -57.491
 859.6000, -57.381
 859.8000, -57.420
 860.0000, -57.301
 860.2000, -57.301
 860.4000, -57.371
 860.6000, -57.330
 860.8000, -57.346
 861.0000, -57.383
 861.2000, -57.378
 861.4000, -57.551
 861.6000, -57.533
 861.8000, -57.351
 862.0000, -57.455
 862.2000, -57.445
 862.4000, -57.430
 862.6000, -57.428
 862.8000, -57.574
 863.0000, -57.444
 863.2000, -57.513
 863.4000, -57.514
 863.6000, -57.467
 863.8000, -57.653
 864.0000, -57.570
 864.2000, -57.486
 864.4000, -57.684
 864.6000, -57.590
 864.8000, -57.761
 865.0000, -57.695
 865.2000, -57.535
 865.4000, -57.708
 865.6000, -57.708
 865.8000, -57.653
 866.0000, -57.671
 866.2000, -57.754
 866.4000, -57.629
 866.6000, -57.659
 866.8000, -57.714
 867.0000, -57.773
 867.2000, -57.738
 867.4000, -57.759
 867.6000, -57.736
 867.8000, -57.692
 868.0000, -57.727
 868.2000, -57.839
 868.4000, -57.724
 868.6000, -57.816
 868.8000, -57.854
 869.0000, -57.702
 869.2000, -57.886
 869.4000, -57.774
 869.6000, -57.826
 869.8000, -57.893
 870.0000, -57.904
 870.2000, -57.982
 870.4000, -57.812
 870.6000, -57.922
 870.8000, -57.777
 871.0000, -57.808
 871.2000, -57.957
 871.4000, -58.051
 871.6000, -57.846
 871.8000, -57.825
 872.0000, -58.046
 872.2000, -57.973
 872.4000, -58.003
 872.6000, -58.086
 872.8000, -57.952
 873.0000, -58.065
 873.2000, -57.992
 873.4000, -58.039
 873.6000, -58.000
 873.8000, -58.060
 874.0000, -57.988
 874.2000, -58.020
 874.4000, -58.219
 874.6000, -58.106
 874.8000, -57.972
 875.0000, -58.102
 875.2000, -57.966
 875.4000, -58.108
 875.6000, -58.181
 875.8000, -58.176
 876.0000, -58.281
 876.2000, -58.156
 876.4000, -58.150
 876.6000, -58.133
 876.8000, -58.205
 877.0000, -58.196
 877.2000, -58.157
 877.4000, -58.158
 877.6000, -58.113
 877.8000, -58.075
 878.0000, -58.154
 878.2000, -58.325
 878.4000, -58.160
 878.6000, -58.230
 878.8000, -58.352
 879.0000, -58.278
 879.2000, -58.153
 879.4000, -58.256
 879.6000, -58.434
 879.8000, -58.224
 880.0000, -58.316
 880.2000, -58.252
 880.4000, -58.450
 880.6000, -58.224
 880.8000, -58.316
 881.0000, -58.243
 881.2000, -58.342
 881.4000, -58.395
 881.6000, -58.331
 881.8000, -58.460
 882.0000, -58.407
 882.2000, -58.280
 882.4000, -58.190
 882.6000, -58.386
 882.8000, -58.389
 883.0000, -58.543
 883.2000, -58.469
 883.4000, -58.371
 883.6000, -58.429
 883.8000, -58.441
 884.0000, -58.397
 884.2000, -58.657
 884.4000, -58.534
 884.6000, -58.474
 884.8000, -58.488
 885.0000, -58.481
 885.2000, -58.528
 885.4000, -58.577
 885.6000, -58.431
 885.8000, -58.553
 886.0000, -58.517
 886.2000, -58.552
 886.4000, -58.612
 886.6000, -58.708
 886.8000, -58.671
 887.0000, -58.489
 887.2000, -58.633
 887.4000, -58.590
 887.6000, -58.586
 887.8000, -58.658
 888.0000, -58.619
 888.2000, -58.618
 888.4000, -58.596
 888.6000, -58.805
 888.8000, -58.568
 889.0000, -58.678
 889.2000, -58.681
 889.4000, -58.712
 889.6000, -58.600
 889.8000, -58.699
 890.0000, -58.600
 890.2000, -58.545
 890.4000, -58.597
 890.6000, -58.747
 890.8000, -58.794
 891.0000, -58.686
 891.2000, -58.750
 891.4000, -58.769
 891.6000, -58.864
 891.8000, -58.743
 892.0000, -58.746
 892.2000, -58.720
 892.4000, -58.840
 892.6000, -58.850
 892.8000, -58.856
 893.0000, -58.831
 893.2000, -58.794
 893.4000, -58.952
 893.6000, -58.788
 893.8000, -58.883
 894.0000, -58.912
 894.2000, -58.855
 894.4000, -58.970
 894.6000, -58.886
 894.8000, -59.014
 895.0000, -58.820
 895.2000, -59.044
 895.4000, -58.879
 895.6000, -58.842
 895.8000, -58.840
 896.0000, -58.954
 896.2000, -58.805
 896.4000, -58.910
 896.6000, -58.909
 896.8000, -59.036
 897.0000, -58.985
 897.2000, -58.968
 897.4000, -59.038
 897.6000, -59.157
 897.8000, -59.085
 898.0000, -58.922
 898.2000, -58.938
 898.4000, -59.096
 898.6000, -59.034
 898.8000, -58.955
 899.0000, -59.196
 899.2000, -59.212
 899.4000, -59.065
 899.6000, -59.038
 899.8000, -59.100
 900.0000, -59.039
 900.2000, -59.209
 900.4000, -59.248
 900.6000, -59.188
 900.8000, -59.225
 901.0000, -59.153
 901.2000, -59.184
 901.4000, -59.211
 901.6000, -59.035
 901.8000, -58.997
 902.0000, -59.154
 902.2000, -59.202
 902.4000, -59.173
 902.6000, -59.262
 902.8000, -59.270
 903.0000, -59.039
 903.2000, -59.282
 903.4000, -59.162
 903.6000, -59.360
 903.8000, -59.218
 904.0000, -59.204
 904.2000, -59.276
 904.4000, -59.271
 904.6000, -59.230
 904.8000, -59.252
 905.0000, -59.311
 905.2000, -59.258
 905.4000, -59.253
 905.6000, -59.246
 905.8000, -59.376
 906.0000, -59.547
 906.2000, -59.552
 906.4000, -59.433
 906.6000, -59.361
 906.8000, -59.406
 907.0000, -59.566
 907.2000, -59.380
 907.4000, -59.376
 907.6000, -59.495
 907.8000, -59.590
 908.0000, -59.499
 908.2000, -59.454
 908.4000, -59.324
 908.6000, -59.429
 908.8000, -59.410
 909.0000, -59.390
 909.2000, -59.569
 909.4000, -59.528
 909.6000, -59.396
 909.8000, -59.352
 910.0000, -59.327
 910.2000, -59.479
 910.4000, -59.486
 910.6000, -59.399
 910.8000, -59.539
 911.0000, -59.437
 911.2000, -59.511
 911.4000, -59.489
 911.6000, -59.728
 911.8000, -59.600
 912.0000, -59.536
 912.2000, -59.560
 912.4000, -59.636
 912.6000, -59.481
 912.8000, -59.545
 913.0000, -59.541
 913.2000, -59.767
 913.4000, -59.677
 913.6000, -59.584
 913.8000, -59.546
 914.0000, -59.694
 914.2000, -59.527
 914.4000, -59.632
 914.6000, -59.524
 914.8000, -59.372
 915.0000, -59.611
 915.2000, -59.528
 915.4000, -59.620
 915.6000, -59.637
 915.8000, -59.753
 916.0000, -59.496
 916.2000, -59.793
 916.4000, -59.747
 916.6000, -59.644
 916.8000, -59.633
 917.0000, -59.873
 917.2000, -59.862
 917.4000, -59.624
 917.6000, -59.804
 917.8000, -59.790
 918.0000, -59.706
 918.2000, -59.613
 918.4000, -59.767
 918.6000, -59.892
 918.8000, -59.718
 919.0000, -59.685
 919.2000, -59.811
 919.4000, -59.810
 919.6000, -59.859
 919.8000, -59.797
 920.0000, -59.937
 920.2000, -59.812
 920.4000, -59.828
 920.6000, -59.760
 920.8000, -59.746
 921.0000, -59.901
 921.2000, -59.879
 921.4000, -59.812
 921.6000, -59.838
 921.8000, -59.947
 922.0000, -59.908
 922.2000, -59.826
 922.4000, -59.909
 922.6000, -59.881
 922.8000, -60.012
 923.0000, -59.940
 923.2000, -59.940
 923.4000, -59.822
 923.6000, -59.909
 923.8000, -60.033
 924.0000, -60.013
 924.2000, -59.996
 924.4000, -59.957
 924.6000, -59.943
 924.8000, -60.039
 925.0000, -60.184
 925.2000, -60.121
 925.4000, -60.136
 925.6000, -60.253
 925.8000, -59.945
 926.0000, -60.073
 926.2000, -60.206
 926.4000, -60.104
 926.6000, -60.166
 926.8000, -60.191
 927.0000, -60.079
 927.2000, -60.089
 927.4000, -60.088
 927.6000, -60.043
 927.8000, -60.147
 928.0000, -60.167
 928.2000, -60.163
 928.4000, -59.937
 928.6000, -60.253
 928.8000, -60.183
 929.0000, -60.303
 929.2000, -60.252
 929.4000, -60.124
 929.6000, -60.164
 929.8000, -60.322
 930.0000, -60.343
 930.2000, -60.319
 930.4000, -60.351
 930.6000, -60.377
 930.8000, -60.267
 931.0000, -60.313
 931.2000, -60.373
 931.4000, -60.201
 931.6000, -60.205
 931.8000, -60.392
 932.0000, -60.386
 932.2000, -60.485
 932.4000, -60.280
 932.6000, -60.426
 932.8000, -60.642
 933.0000, -60.417
 933.2000, -60.559
 933.4000, -60.361
 933.6000, -60.465
 933.8000, -60.436
 934.0000, -60.601
 934.2000, -60.451
 934.4000, -60.675
 934.6000, -60.622
 934.8000, -60.577
 935.0000, -60.579
 935.2000, -60.487
 935.4000, -60.433
 935.6000, -60.511
 935.8000, -60.527
 936.0000, -60.589
 936.2000, -60.478
 936.4000, -60.505
 936.6000, -60.687
 936.8000, -60.776
 937.0000, -60.619
 937.2000, -60.676
 937.4000, -60.684
 937.6000, -60.666
 937.8000, -60.584
 938.0000, -60.846
 938.2000, -60.775
 938.4000, -60.835
 938.6000, -60.902
 938.8000, -60.770
 939.0000, -60.839
 939.2000, -60.825
 939.4000, -60.835
 939.6000, -60.635
 939.8000, -60.685
 940.0000, -61.057
 940.2000, -60.741
 940.4000, -60.867
 940.6000, -61.043
 940.8000, -61.011
 941.0000, -61.008
 941.2000, -60.763
 941.4000, -61.083
 941.6000, -61.018
 941.8000, -60.869
 942.0000, -60.961
 942.2000, -61.086
 942.4000, -61.081
 942.6000, -60.887
 942.8000, -61.120
 943.0000, -60.975
 943.2000, -61.111
 943.4000, -61.141
 943.6000, -61.000
 943.8000, -60.979
 944.0000, -61.019
 944.2000, -61.241
 944.4000, -61.111
 944.6000, -61.022
 944.8000, -61.198
 945.0000, -61.126
 945.2000, -61.030
 945.4000, -61.034
 945.6000, -61.338
 945.8000, -61.019
 946.0000, -61.184
 946.2000, -61.197
 946.4000, -61.282
 946.6000, -61.175
 946.8000, -61.205
 947.0000, -61.332
 947.2000, -61.183
 947.4000, -61.321
 947.6000, -61.193
 947.8000, -61.286
 948.0000, -61.222
 948.2000, -61.245
 948.4000, -61.271
 948.6000, -61.220
 948.8000, -61.341
 949.0000, -61.203
 949.2000, -61.241
 949.4000, -61.317
 949.6000, -61.406
 949.8000, -61.438
 950.0000, -61.427
 950.2000, -61.372
 950.4000, -61.474
 950.6000, -61.358
 950.8000, -61.405
 951.0000, -61.420
 951.2000, -61.351
 951.4000, -61.388
 951.6000, -61.453
 951.8000, -61.639
 952.0000, -61.471
 952.2000, -61.496
 952.4000, -61.642
 952.6000, -61.606
 952.8000, -61.703
 953.0000, -61.612
 953.2000, -61.654
 953.4000, -61.507
 953.6000, -61.555
 953.8000, -61.691
 954.0000, -61.611
 954.2000, -61.739
 954.4000, -61.826
 954.6000, -61.543
 954.8000, -61.716
 955.0000, -61.694
 955.2000, -61.851
 955.4000, -61.622
 955.6000, -61.622
 955.8000, -61.804
 956.0000, -61.843
 956.2000, -61.949
 956.4000, -61.846
 956.6000, -62.022
 956.8000, -61.954
 957.0000, -62.041
 957.2000, -61.816
 957.4000, -62.018
 957.6000, -61.991
 957.8000, -61.935
 958.0000, -62.042
 958.2000, -61.762
 958.4000, -61.967
 958.6000, -61.860
 958.8000, -61.855
 959.0000, -62.086
 959.2000, -61.863
 959.4000, -61.971
 959.6000, -61.945
 959.8000, -61.985
 960.0000, -62.015
 960.2000, -62.041
 960.4000, -61.881
 960.6000, -61.924
 960.8000, -61.994
 961.0000, -62.030
 961.2000, -62.095
 961.4000, -62.096
 961.6000, -62.214
 961.8000, -61.842
 962.0000, -61.878
 962.2000, -61.878
 962.4000, -61.983
 962.6000, -62.059
 962.8000, -61.888
 963.0000, -61.934
 963.2000, -62.018
 963.4000, -61.960
 963.6000, -62.029
 963.8000, -62.122
 964.0000, -62.072
 964.2000, -62.309
 964.4000, -62.123
 964.6000, -62.175
 964.8000, -62.069
 965.0000, -62.221
 965.2000, -62.246
 965.4000, -62.214
 965.6000, -62.240
 965.8000, -62.256
 966.0000, -62.159
 966.2000, -62.178
 966.4000, -62.373
 966.6000, -62.455
 966.8000, -62.381
 967.0000, -62.371
 967.2000, -62.198
 967.4000, -62.446
 967.6000, -62.317
 967.8000, -62.314
 968.0000, -62.451
 968.2000, -62.361
 968.4000, -62.339
 968.6000, -62.457
 968.8000, -62.519
 969.0000, -62.524
 969.2000, -62.449
 969.4000, -62.391
 969.6000, -62.548
 969.8000, -62.523
 970.0000, -62.546
 970.2000, -62.727
 970.4000, -62.664
 970.6000, -62.666
 970.8000, -62.709
 971.0000, -62.364
 971.2000, -62.794
 971.4000, -62.867
 971.6000, -62.656
 971.8000, -62.822
 972.0000, -62.745
 972.2000, -62.735
 972.4000, -63.023
 972.6000, -62.948
 972.8000, -62.680
 973.0000, -62.944
 973.2000, -62.674
 973.4000, -62.939
 973.6000, -62.965
 973.8000, -62.984
 974.0000, -63.059
 974.2000, -63.002
 974.4000, -63.007
 974.6000, -62.935
 974.8000, -63.199
 975.0000, -63.155
 975.2000, -63.229
 975.4000, -63.234
 975.6000, -63.279
 975.8000, -63.373
 976.0000, -63.517
 976.2000, -63.586
 976.4000, -63.285
 976.6000, -63.505
 976.8000, -63.507
 977.0000, -63.510
 977.2000, -63.665
 977.4000, -63.602
 977.6000, -63.530
 977.8000, -63.522
 978.0000, -63.601
 978.2000, -63.567
 978.4000, -63.921
 978.6000, -64.002
 978.8000, -63.703
 979.0000, -63.981
 979.2000, -63.786
 979.4000, -63.864
 979.6000, -63.819
 979.8000, -63.832
 980.0000, -63.964
 980.2000, -63.884
 980.4000, -63.954
 980.6000, -63.957
 980.8000, -63.800
 981.0000, -63.895
 981.2000, -63.934
 981.4000, -63.952
 981.6000, -64.086
 981.8000, -63.866
 982.0000, -63.944
 982.2000, -63.657
 982.4000, -63.789
 982.6000, -63.807
 982.8000, -63.854
 983.0000, -63.751
 983.2000, -63.647
 983.4000, -63.575
 983.6000, -63.686
 983.8000, -63.883
 984.0000, -63.801
 984.2000, -63.785
 984.4000, -63.819
 984.6000, -63.650
 984.8000, -63.759
 985.0000, -63.856
 985.2000, -63.626
 985.4000, -63.588
 985.6000, -63.765
 985.8000, -63.560
 986.0000, -63.710
 986.2000, -63.497
 986.4000, -63.642
 986.6000, -63.576
 986.8000, -63.657
 987.0000, -63.784
 987.2000, -63.720
 987.4000, -63.588
 987.6000, -63.798
 987.8000, -63.561
 988.0000, -63.756
 988.2000, -63.539
 988.4000, -63.560
 988.6000, -63.510
 988.8000, -63.642
 989.0000, -63.647
 989.2000, -63.680
 989.4000, -63.557
 989.6000, -63.628
 989.8000, -63.649
 990.0000, -63.682
 990.2000, -63.644
 990.4000, -63.753
 990.6000, -63.555
 990.8000, -63.587
 991.0000, -63.640
 991.2000, -63.774
 991.4000, -63.622
 991.6000, -63.657
 991.8000, -63.669
 992.0000, -63.908
 992.2000, -63.561
 992.4000, -63.702
 992.6000, -63.553
 992.8000, -63.593
 993.0000, -63.460
 993.2000, -63.756
 993.4000, -63.556
 993.6000, -63.771
 993.8000, -63.774
 994.0000, -63.846
 994.2000, -63.817
 994.4000, -63.737
 994.6000, -63.550
 994.8000, -63.705
 995.0000, -63.742
 995.2000, -63.802
 995.4000, -63.897
 995.6000, -63.826
 995.8000, -63.858
 996.0000, -63.662
 996.2000, -63.874
 996.4000, -63.912
 996.6000, -64.023
 996.8000, -63.967
 997.0000, -63.891
 997.2000, -64.134
 997.4000, -63.934
 997.6000, -64.056
 997.8000, -64.093
 998.0000, -64.131
 998.2000, -64.057
 998.4000, -64.302
 998.6000, -64.208
 998.8000, -64.263
 999.0000, -64.219
 999.2000, -64.313
 999.4000, -64.374
 999.6000, -64.307
 999.8000, -64.479
1000.0000, -64.253
1000.2000, -64.401
1000.4000, -64.493
1000.6000, -64.382
1000.8000, -64.456
1001.0000, -64.342
1001.2000, -64.308
1001.4000, -64.364
1001.6000, -64.383
1001.8000, -64.382
1002.0000, -64.250
1002.2000, -64.285
1002.4000, -64.287
1002.6000, -64.442
1002.8000, -64.228
1003.0000, -64.315
1003.2000, -64.357
1003.4000, -64.414
1003.6000, -64.445
1003.8000, -64.451
1004.0000, -64.283
1004.2000, -64.427
1004.4000, -64.310
1004.6000, -64.333
1004.8000, -64.420
1005.0000, -64.388
1005.2000, -64.384
1005.4000, -64.466
1005.6000, -64.577
1005.8000, -64.637
1006.0000, -64.643
1006.2000, -64.607
1006.4000, -64.734
1006.6000, -64.429
1006.8000, -64.825
1007.0000, -64.863
1007.2000, -64.970
1007.4000, -64.948
1007.6000, -64.840
1007.8000, -64.988
1008.0000, -65.046
1008.2000, -64.919
1008.4000, -64.980
1008.6000, -65.171
1008.8000, -65.332
1009.0000, -65.394
1009.2000, -65.527
1009.4000, -65.642
1009.6000, -65.531
1009.8000, -65.731
1010.0000, -65.803
1010.2000, -65.662
1010.4000, -65.740
1010.6000, -65.808
1010.8000, -66.046
1011.0000, -65.945
1011.2000, -66.048
1011.4000, -66.131
1011.6000, -66.232
1011.8000, -66.163
1012.0000, -66.010
1012.2000, -66.147
1012.4000, -65.981
1012.6000, -66.212
1012.8000, -66.074
1013.0000, -66.210
1013.2000, -66.121
1013.4000, -66.093
1013.6000, -66.030
1013.8000, -66.074
1014.0000, -65.876
1014.2000, -65.983
1014.4000, -65.907
1014.6000, -65.942
1014.8000, -65.881
1015.0000, -65.951
1015.2000, -65.746
1015.4000, -65.944
1015.6000, -65.899
1015.8000, -65.783
1016.0000, -65.833
1016.2000, -65.789
1016.4000, -65.690
1016.6000, -65.790
1016.8000, -65.617
1017.0000, -65.558
1017.2000, -65.317
1017.4000, -65.623
1017.6000, -65.641
1017.8000, -65.297
1018.0000, -65.300
1018.2000, -65.324
1018.4000, -65.276
1018.6000, -65.382
1018.8000, -65.239
1019.0000, -65.150
1019.2000, -64.945
1019.4000, -65.055
1019.6000, -65.031
1019.8000, -65.011
1020.0000, -64.988
1020.2000, -64.733
1020.4000, -64.806
1020.6000, -64.803
1020.8000, -64.656
1021.0000, -64.648
1021.2000, -64.710
1021.4000, -64.500
1021.6000, -64.571
1021.8000, -64.553
1022.0000, -64.403
1022.2000, -64.200
1022.4000, -64.301
1022.6000, -64.159
1022.8000, -64.117
1023.0000, -64.063
1023.2000, -63.959
1023.4000, -63.995
1023.6000, -64.111
1023.8000, -63.925
1024.0000, -63.721
1024.2000, -63.781
1024.4000, -63.810
1024.6000, -63.531
1024.8000, -63.619
1025.0000, -63.727
1025.2000, -63.461
1025.4000, -63.569
1025.6000, -63.407
1025.8000, -63.531
1026.0000, -63.312
1026.2000, -63.293
1026.4000, -63.464
1026.6000, -63.154
1026.8000, -63.187
1027.0000, -63.075
1027.2000, -63.074
1027.4000, -63.105
1027.6000, -62.977
1027.8000, -62.946
1028.0000, -62.884
1028.2000, -62.795
1028.4000, -62.725
1028.6000, -62.816
1028.8000, -62.717
1029.0000, -62.479
1029.2000, -62.506
1029.4000, -62.640
1029.6000, -62.457
1029.8000, -62.523
1030.0000, -62.566
1030.2000, -62.363
1030.4000, -62.301
1030.6000, -62.550
1030.8000, -62.577
1031.0000, -62.524
1031.2000, -62.394
1031.4000, -62.327
1031.6000, -62.312
1031.8000, -62.295
1032.0000, -62.268
1032.2000, -62.268
1032.4000, -62.230
1032.6000, -62.184
1032.8000, -62.216
1033.0000, -62.047
1033.2000, -62.191
1033.4000, -62.191
1033.6000, -62.109
1033.8000, -62.098
1034.0000, -62.050
1034.2000, -62.105
1034.4000, -62.122
1034.6000, -61.969
1034.8000, -61.947
1035.0000, -61.901
1035.2000, -61.930
1035.4000, -61.933
1035.6000, -61.948
1035.8000, -62.020
1036.0000, -61.941
1036.2000, -61.836
1036.4000, -61.947
1036.6000, -61.854
1036.8000, -61.834
1037.0000, -61.639
1037.2000, -61.741
1037.4000, -61.784
1037.6000, -61.671
1037.8000, -61.670
1038.0000, -61.908
1038.2000, -61.910
1038.4000, -61.841
1038.6000, -61.813
1038.8000, -61.923
1039.0000, -61.948
1039.2000, -61.813
1039.4000, -61.842
1039.6000, -61.918
1039.8000, -62.086
1040.0000, -61.893
1040.2000, -61.904
1040.4000, -61.891
1040.6000, -61.799
1040.8000, -61.797
1041.0000, -61.847
1041.2000, -61.940
1041.4000, -61.929
1041.6000, -62.007
1041.8000, -61.868
1042.0000, -61.846
1042.2000, -61.956
1042.4000, -61.965
1042.6000, -61.917
1042.8000, -61.909
1043.0000, -61.787
1043.2000, -62.152
1043.4000, -61.829
1043.6000, -61.966
1043.8000, -61.977
1044.0000, -61.696
1044.2000, -61.799
1044.4000, -61.872
1044.6000, -61.735
1044.8000, -61.823
1045.0000, -61.740
1045.2000, -61.781
1045.4000, -61.802
1045.6000, -61.620
1045.8000, -61.758
1046.0000, -61.482
1046.2000, -61.641
1046.4000, -61.484
1046.6000, -61.618
1046.8000, -61.552
1047.0000, -61.331
1047.2000, -61.302
1047.4000, -61.175
1047.6000, -60.907
1047.8000, -60.730
1048.0000, -60.583
1048.2000, -60.666
1048.4000, -60.490
1048.6000, -60.433
1048.8000, -60.463
1049.0000, -59.954
1049.2000, -60.131
1049.4000, -60.021
1049.6000, -59.773
1049.8000, -59.727
1050.0000, -59.664
1050.2000, -59.570
1050.4000, -59.474
1050.6000, -59.685
1050.8000, -59.934
1051.0000, -59.873
1051.2000, -59.646
1051.4000, -59.925
1051.6000, -60.012
1051.8000, -60.217
1052.0000, -60.140
1052.2000, -60.267
1052.4000, -60.145
1052.6000, -60.412
1052.8000, -60.403
1053.0000, -60.515
1053.2000, -60.537
1053.4000, -60.610
1053.6000, -60.678
1053.8000, -60.914
1054.0000, -60.938
1054.2000, -61.119
1054.4000, -61.030
1054.6000, -61.177
1054.8000, -61.116
1055.0000, -61.071
1055.2000, -61.232
1055.4000, -61.333
1055.6000, -61.419
1055.8000, -61.380
1056.0000, -61.336
1056.2000, -61.271
1056.4000, -61.311
1056.6000, -61.429
1056.8000, -61.377
1057.0000, -61.445
1057.2000, -61.191
1057.4000, -61.323
1057.6000, -61.246
1057.8000, -61.150
1058.0000, -61.200
1058.2000, -61.210
1058.4000, -61.103
1058.6000, -60.896
1058.8000, -61.148
1059.0000, -60.771
1059.2000, -60.846
1059.4000, -60.857
1059.6000, -60.506
1059.8000, -60.437
1060.0000, -60.379
1060.2000, -60.264
1060.4000, -59.973
1060.6000, -60.153
1060.8000, -59.726
1061.0000, -59.734
1061.2000, -59.540
1061.4000, -59.293
1061.6000, -59.266
1061.8000, -59.321
1062.0000, -59.276
1062.2000, -59.113
1062.4000, -59.213
1062.6000, -58.750
1062.8000, -58.591
1063.0000, -58.347
1063.2000, -58.049
1063.4000, -57.740
1063.6000, -53.891
1063.8000, -37.696
1064.0000, -34.402
1064.2000, -33.023
1064.4000, -33.009
1064.6000, -33.066
1064.8000, -33.581
1065.0000, -36.654
1065.2000, -49.934
1065.4000, -58.377
1065.6000, -58.221
1065.8000, -58.402
1066.0000, -58.449
1066.2000, -58.584
1066.4000, -58.710
1066.6000, -58.551
1066.8000, -58.422
1067.0000, -58.712
1067.2000, -58.552
1067.4000, -58.662
1067.6000, -58.600
1067.8000, -58.742
1068.0000, -58.636
1068.2000, -58.867
1068.4000, -58.992
1068.6000, -59.088
1068.8000, -59.196
1069.0000, -59.257
1069.2000, -59.341
1069.4000, -59.354
1069.6000, -59.228
1069.8000, -59.349
1070.0000, -59.558
1070.2000, -59.378
1070.4000, -59.369
1070.6000, -59.399
1070.8000, -59.450
1071.0000, -59.457
1071.2000, -59.566
1071.4000, -59.423
1071.6000, -59.481
1071.8000, -59.456
1072.0000, -59.327
1072.2000, -59.445
1072.4000, -59.469
1072.6000, -59.298
1072.8000, -59.302
1073.0000, -59.444
1073.2000, -59.259
1073.4000, -59.370
1073.6000, -59.122
1073.8000, -58.985
1074.0000, -58.937
1074.2000, -59.023
1074.4000, -58.827
1074.6000, -58.891
1074.8000, -58.977
1075.0000, -58.586
1075.2000, -58.565
1075.4000, -58.610
1075.6000, -58.300
1075.8000, -58.331
1076.0000, -58.248
1076.2000, -58.064
1076.4000, -58.000
1076.6000, -57.823
1076.8000, -57.772
1077.0000, -57.549
1077.2000, -57.387
1077.4000, -57.382
1077.6000, -57.507
1077.8000, -57.068
1078.0000, -57.015
1078.2000, -56.972
1078.4000, -57.179
1078.6000, -56.975
1078.8000, -56.660
1079.0000, -56.541
1079.2000, -56.470
1079.4000, -56.479
1079.6000, -56.306
1079.8000, -56.132
1080.0000, -56.203
1080.2000, -56.171
1080.4000, -56.225
1080.6000, -56.114
1080.8000, -56.419
1081.0000, -56.240
1081.2000, -56.478
1081.4000, -56.187
1081.6000, -56.034
1081.8000, -56.784
1082.0000, -56.051
1082.2000, -56.241
1082.4000, -56.472
1082.6000, -56.433
1082.8000, -56.546
1083.0000, -56.798
1083.2000, -56.763
1083.4000, -56.466
1083.6000, -56.750
1083.8000, -57.018
1084.0000, -57.397
1084.2000, -57.354
1084.4000, -57.270
1084.6000, -57.272
1084.8000, -57.560
1085.0000, -57.506
1085.2000, -57.564
1085.4000, -57.711
1085.6000, -57.732
1085.8000, -57.754
1086.0000, -57.951
1086.2000, -58.212
1086.4000, -57.968
1086.6000, -58.022
1086.8000, -58.214
1087.0000, -58.175
1087.2000, -58.284
1087.4000, -58.324
1087.6000, -58.407
1087.8000, -58.331
1088.0000, -58.498
1088.2000, -58.453
1088.4000, -58.301
1088.6000, -58.366
1088.8000, -58.341
1089.0000, -58.464
1089.2000, -58.340
1089.4000, -58.375
1089.6000, -58.222
1089.8000, -58.353
1090.0000, -58.371
1090.2000, -58.274
1090.4000, -58.353
1090.6000, -58.096
1090.8000, -58.262
1091.0000, -58.274
1091.2000, -58.172
1091.4000, -58.121
1091.6000, -58.131
1091.8000, -58.273
1092.0000, -58.167
1092.2000, -58.127
1092.4000, -58.036
1092.6000, -58.015
1092.8000, -58.015
1093.0000, -57.987
1093.2000, -57.791
1093.4000, -57.811
1093.6000, -57.816
1093.8000, -57.943
1094.0000, -57.876
1094.2000, -57.746
1094.4000, -57.723
1094.6000, -57.593
1094.8000, -57.561
1095.0000, -57.582
1095.2000, -57.428
1095.4000, -57.484
1095.6000, -57.596
1095.8000, -57.523
1096.0000, -57.460
1096.2000, -57.489
1096.4000, -57.628
1096.6000, -57.334
1096.8000, -57.270
1097.0000, -57.518
1097.2000, -57.370
1097.4000, -57.237
1097.6000, -57.377
1097.8000, -57.284
1098.0000, -57.305
1098.2000, -57.161
1098.4000, -57.223
1098.6000, -57.272
1098.8000, -57.089
1099.0000, -57.163
1099.2000, -57.061
1099.4000, -57.006
1099.6000, -57.046
1099.8000, -57.061
1100.0000, -56.989
1100.2000, -57.000
1100.4000, -56.962
1100.6000, -56.944
1100.8000, -57.002
1101.0000, -56.820
1101.2000, -56.948
1101.4000, -56.845
1101.6000, -56.993
1101.8000, -56.852
1102.0000, -56.839
1102.2000, -57.070
1102.4000, -56.997
1102.6000, -56.950
1102.8000, -57.120
1103.0000, -57.033
1103.2000, -57.201
1103.4000, -57.212
1103.6000, -57.166
1103.8000, -57.053
1104.0000, -57.025
1104.2000, -57.108
1104.4000, -57.202
1104.6000, -57.131
1104.8000, -57.111
1105.0000, -57.176
1105.2000, -56.971
1105.4000, -56.944
1105.6000, -57.120
1105.8000, -57.192
1106.0000, -56.922
1106.2000, -57.085
1106.4000, -57.064
1106.6000, -56.982
1106.8000, -57.141
1107.0000, -56.981
1107.2000, -57.145
1107.4000, -57.021
1107.6000, -56.842
1107.8000, -56.866
1108.0000, -56.924
1108.2000, -56.985
1108.4000, -57.063
1108.6000, -56.921
1108.8000, -56.866
1109.0000, -56.782
1109.2000, -56.873
1109.4000, -56.858
1109.6000, -56.783
1109.8000, -56.651
1110.0000, -56.783
1110.2000, -56.670
1110.4000, -56.839
1110.6000, -56.618
1110.8000, -56.571
1111.0000, -56.652
1111.2000, -56.644
1111.4000, -56.673
1111.6000, -56.647
1111.8000, -56.671
1112.0000, -56.608
1112.2000, -56.634
1112.4000, -56.739
1112.6000, -56.543
1112.8000, -56.676
1113.0000, -56.588
1113.2000, -56.512
1113.4000, -56.646
1113.6000, -56.645
1113.8000, -56.564
1114.0000, -56.565
1114.2000, -56.412
1114.4000, -56.429
1114.6000, -56.517
1114.8000, -56.565
1115.0000, -56.488
1115.2000, -56.507
1115.4000, -56.608
1115.6000, -56.689
1115.8000, -56.570
1116.0000, -56.531
1116.2000, -56.628
1116.4000, -56.699
1116.6000, -56.586
1116.8000, -56.551
1117.0000, -56.555
1117.2000, -56.596
1117.4000, -56.687
1117.6000, -56.526
1117.8000, -56.667
1118.0000, -56.600
1118.2000, -56.570
1118.4000, -56.699
1118.6000, -56.823
1118.8000, -56.657
1119.0000, -56.652
1119.2000, -56.650
1119.4000, -56.631
1119.6000, -56.597
1119.8000, -56.632
1120.0000, -56.701
1120.2000, -56.852
1120.4000, -56.842
1120.6000, -56.682
1120.8000, -56.801
1121.0000, -56.835
1121.2000, -56.827
1121.4000, -56.864
1121.6000, -56.808
1121.8000, -56.916
1122.0000, -56.876
1122.2000, -56.735
1122.4000, -56.673
1122.6000, -56.835
1122.8000, -56.730
1123.0000, -56.622
1123.2000, -56.684
1123.4000, -56.770
1123.6000, -56.861
1123.8000, -56.974
1124.0000, -56.973
1124.2000, -56.973
1124.4000, -57.089
1124.6000, -57.021
1124.8000, -57.102
1125.0000, -57.226
1125.2000, -57.117
1125.4000, -57.256
1125.6000, -57.289
1125.8000, -57.412
1126.0000, -57.403
1126.2000, -57.334
1126.4000, -57.273
1126.6000, -57.541
1126.8000, -57.428
1127.0000, -57.472
1127.2000, -57.464
1127.4000, -57.471
1127.6000, -57.438
1127.8000, -57.681
1128.0000, -57.625
1128.2000, -57.609
1128.4000, -57.440
1128.6000, -57.473
1128.8000, -57.618
1129.0000, -57.559
1129.2000, -57.732
1129.4000, -57.659
1129.6000, -57.794
1129.8000, -57.941
1130.0000, -57.882
1130.2000, -57.735
1130.4000, -57.868
1130.6000, -57.772
1130.8000, -57.796
1131.0000, -57.678
1131.2000, -57.833
1131.4000, -57.889
1131.6000, -57.942
1131.8000, -58.011
1132.0000, -57.940
1132.2000, -57.860
1132.4000, -57.983
1132.6000, -57.821
1132.8000, -58.036
1133.0000, -57.926
1133.2000, -57.947
1133.4000, -58.126
1133.6000, -58.264
1133.8000, -58.084
1134.0000, -58.201
1134.2000, -58.323
1134.4000, -58.284
1134.6000, -58.362
1134.8000, -58.261
1135.0000, -58.328
1135.2000, -58.189
1135.4000, -58.399
1135.6000, -58.238
1135.8000, -58.090
1136.0000, -58.201
1136.2000, -58.189
1136.4000, -58.349
1136.6000, -58.145
1136.8000, -58.119
1137.0000, -58.267
1137.2000, -58.327
1137.4000, -58.547
1137.6000, -58.333
1137.8000, -58.354
1138.0000, -58.337
1138.2000, -58.508
1138.4000, -58.508
1138.6000, -58.361
1138.8000, -58.524
1139.0000, -58.414
1139.2000, -58.415
1139.4000, -58.523
1139.6000, -58.495
1139.8000, -58.459
1140.0000, -58.528
1140.2000, -58.514
1140.4000, -58.534
1140.6000, -58.688
1140.8000, -58.659
1141.0000, -58.671
1141.2000, -58.734
1141.4000, -58.782
1141.6000, -58.719
1141.8000, -58.739
1142.0000, -58.642
1142.2000, -58.700
1142.4000, -58.743
1142.6000, -58.852
1142.8000, -58.891
1143.0000, -58.819
1143.2000, -58.814
1143.4000, -58.834
1143.6000, -58.784
1143.8000, -58.892
1144.0000, -58.975
1144.2000, -58.913
1144.4000, -58.946
1144.6000, -58.959
1144.8000, -59.093
1145.0000, -59.012
1145.2000, -58.933
1145.4000, -59.023
1145.6000, -59.034
1145.8000, -59.156
1146.0000, -59.000
1146.2000, -59.092
1146.4000, -59.041
1146.6000, -59.328
1146.8000, -59.176
1147.0000, -59.268
1147.2000, -59.125
1147.4000, -59.260
1147.6000, -59.147
1147.8000, -59.207
1148.0000, -59.174
1148.2000, -59.281
1148.4000, -59.219
1148.6000, -59.290
1148.8000, -59.083
1149.0000, -59.338
1149.2000, -59.291
1149.4000, -59.384
1149.6000, -59.195
1149.8000, -59.234
1150.0000, -59.257
1150.2000, -59.369
1150.4000, -59.313
1150.6000, -59.357
1150.8000, -59.265
1151.0000, -59.321
1151.2000, -59.262
1151.4000, -59.421
1151.6000, -59.395
1151.8000, -59.355
1152.0000, -59.374
1152.2000, -59.425
1152.4000, -59.382
1152.6000, -59.430
1152.8000, -59.223
1153.0000, -59.287
1153.2000, -59.204
1153.4000, -59.388
1153.6000, -59.402
1153.8000, -59.388
1154.0000, -59.401
1154.2000, -59.425
1154.4000, -59.541
1154.6000, -59.397
1154.8000, -59.397
1155.0000, -59.650
1155.2000, -59.547
1155.4000, -59.418
1155.6000, -59.335
1155.8000, -59.459
1156.0000, -59.553
1156.2000, -59.549
1156.4000, -59.395
1156.6000, -59.475
1156.8000, -59.462
1157.0000, -59.518
1157.2000, -59.391
1157.4000, -59.443
1157.6000, -59.464
1157.8000, -59.531
1158.0000, -59.491
1158.2000, -59.507
1158.4000, -59.402
1158.6000, -59.448
1158.8000, -59.480
1159.0000, -59.626
1159.2000, -59.535
1159.4000, -59.547
1159.6000, -59.490
1159.8000, -59.373
1160.0000, -59.608
1160.2000, -59.412
1160.4000, -59.478
1160.6000, -59.549
1160.8000, -59.467
1161.0000, -59.458
1161.2000, -59.476
1161.4000, -59.505
1161.6000, -59.472
1161.8000, -59.216
1162.0000, -59.375
1162.2000, -59.492
1162.4000, -59.512
1162.6000, -59.579
1162.8000, -59.556
1163.0000, -59.509
1163.2000, -59.381
1163.4000, -59.647
1163.6000, -59.556
1163.8000, -59.636
1164.0000, -59.610
1164.2000, -59.601
1164.4000, -59.405
1164.6000, -59.371
1164.8000, -59.449
1165.0000, -59.482
1165.2000, -59.481
1165.4000, -59.579
1165.6000, -59.553
1165.8000, -59.612
1166.0000, -59.563
1166.2000, -59.336
1166.4000, -59.399
1166.6000, -59.606
1166.8000, -59.618
1167.0000, -59.565
1167.2000, -59.636
1167.4000, -59.572
1167.6000, -59.613
1167.8000, -59.620
1168.0000, -59.608
1168.2000, -59.698
1168.4000, -59.739
1168.6000, -59.568
1168.8000, -59.631
1169.0000, -59.486
1169.2000, -59.685
1169.4000, -59.757
1169.6000, -59.554
1169.8000, -59.652
1170.0000, -59.729
1170.2000, -59.725
1170.4000, -59.695
1170.6000, -59.979
1170.8000, -59.761
1171.0000, -59.774
1171.2000, -59.725
1171.4000, -59.841
1171.6000, -59.908
1171.8000, -59.934
1172.0000, -59.776
1172.2000, -59.877
1172.4000, -59.898
1172.6000, -59.887
1172.8000, -59.797
1173.0000, -59.892
1173.2000, -59.992
1173.4000, -60.035
1173.6000, -59.856
1173.8000, -60.006
1174.0000, -60.001
1174.2000, -60.144
1174.4000, -59.969
1174.6000, -59.981
1174.8000, -60.039
1175.0000, -59.948
1175.2000, -60.103
1175.4000, -60.009
1175.6000, -60.002
1175.8000, -60.048
1176.0000, -60.123
1176.2000, -60.093
1176.4000, -60.087
1176.6000, -60.139
1176.8000, -60.124
1177.0000, -60.295
1177.2000, -60.205
1177.4000, -60.075
1177.6000, -60.223
1177.8000, -60.064
1178.0000, -60.199
1178.2000, -60.119
1178.4000, -60.246
1178.6000, -60.466
1178.8000, -60.235
1179.0000, -60.270
1179.2000, -60.374
1179.4000, -60.258
1179.6000, -60.404
1179.8000, -60.232
1180.0000, -60.420
1180.2000, -60.383
1180.4000, -60.354
1180.6000, -60.366
1180.8000, -60.382
1181.0000, -60.423
1181.2000, -60.354
1181.4000, -60.441
1181.6000, -60.451
1181.8000, -60.425
1182.0000, -60.396
1182.2000, -60.462
1182.4000, -60.403
1182.6000, -60.491
1182.8000, -60.421
1183.0000, -60.571
1183.2000, -60.676
1183.4000, -60.544
1183.6000, -60.535
1183.8000, -60.552
1184.0000, -60.593
1184.2000, -60.576
1184.4000, -60.569
1184.6000, -60.640
1184.8000, -60.723
1185.0000, -60.742
1185.2000, -60.590
1185.4000, -60.669
1185.6000, -60.820
1185.8000, -60.664
1186.0000, -60.757
1186.2000, -60.692
1186.4000, -60.742
1186.6000, -60.723
1186.8000, -60.687
1187.0000, -60.795
1187.2000, -60.766
1187.4000, -60.855
1187.6000, -60.925
1187.8000, -60.908
1188.0000, -60.804
1188.2000, -60.865
1188.4000, -60.934
1188.6000, -60.940
1188.8000, -60.937
1189.0000, -60.789
1189.2000, -60.917
1189.4000, -60.678
1189.6000, -60.940
1189.8000, -60.896
1190.0000, -60.916
1190.2000, -61.077
1190.4000, -60.978
1190.6000, -60.992
1190.8000, -60.862
1191.0000, -60.937
1191.2000, -60.998
1191.4000, -60.860
1191.6000, -61.188
1191.8000, -61.041
1192.0000, -61.009
1192.2000, -61.009
1192.4000, -60.988
1192.6000, -61.026
1192.8000, -61.000
1193.0000, -61.146
1193.2000, -61.039
1193.4000, -61.278
1193.6000, -61.225
1193.8000, -61.078
1194.0000, -61.138
1194.2000, -61.085
1194.4000, -61.156
1194.6000, -61.147
1194.8000, -61.205
1195.0000, -61.211
1195.2000, -61.187
1195.4000, -61.358
1195.6000, -61.240
1195.8000, -61.304
1196.0000, -61.332
1196.2000, -61.345
1196.4000, -61.255
1196.6000, -61.219
1196.8000, -61.251
1197.0000, -61.286
1197.2000, -61.475
1197.4000, -61.145
1197.6000, -61.314
1197.8000, -61.348
1198.0000, -61.375
1198.2000, -61.361
1198.4000, -61.329
1198.6000, -61.304
1198.8000, -61.450
1199.0000, -61.293
1199.2000, -61.395
1199.4000, -61.461
1199.6000, -61.351
1199.8000, -61.419
1200.0000, -61.306
1200.2000, -61.393
1200.4000, -61.453
1200.6000, -61.639
1200.8000, -61.397
1201.0000, -61.500
1201.2000, -61.456
1201.4000, -61.584
1201.6000, -61.569
1201.8000, -61.504
1202.0000, -61.565
1202.2000, -61.660
1202.4000, -61.667
1202.6000, -61.505
1202.8000, -61.668
1203.0000, -61.707
1203.2000, -61.535
1203.4000, -61.712
1203.6000, -61.701
1203.8000, -61.671
1204.0000, -61.663
1204.2000, -61.715
1204.4000, -61.715
1204.6000, -61.750
1204.8000, -61.620
1205.0000, -61.742
1205.2000, -61.850
1205.4000, -61.713
1205.6000, -61.797
1205.8000, -61.830
1206.0000, -61.908
1206.2000, -61.824
1206.4000, -61.773
1206.6000, -61.916
1206.8000, -61.889
1207.0000, -61.946
1207.2000, -61.974
1207.4000, -61.724
1207.6000, -62.018
1207.8000, -61.941
1208.0000, -61.824
1208.2000, -61.808
1208.4000, -61.945
1208.6000, -62.057
1208.8000, -61.904
1209.0000, -61.943
1209.2000, -61.958
1209.4000, -61.953
1209.6000, -61.992
1209.8000, -61.954
1210.0000, -61.929
1210.2000, -62.106
1210.4000, -61.971
1210.6000, -62.008
1210.8000, -61.929
1211.0000, -62.058
1211.2000, -61.986
1211.4000, -62.037
1211.6000, -62.122
1211.8000, -62.008
1212.0000, -62.006
1212.2000, -62.044
1212.4000, -62.182
1212.6000, -62.005
1212.8000, -62.031
1213.0000, -62.069
1213.2000, -62.030
1213.4000, -62.146
1213.6000, -62.174
1213.8000, -62.166
1214.0000, -62.081
1214.2000, -62.220
1214.4000, -62.291
1214.6000, -62.256
1214.8000, -62.358
1215.0000, -62.241
1215.2000, -62.230
1215.4000, -62.228
1215.6000, -62.311
1215.8000, -62.221
1216.0000, -62.171
1216.2000, -62.283
1216.4000, -62.186
1216.6000, -62.375
1216.8000, -62.338
1217.0000, -62.344
1217.2000, -62.438
1217.4000, -62.431
1217.6000, -62.252
1217.8000, -62.403
1218.0000, -62.423
1218.2000, -62.443
1218.4000, -62.319
1218.6000, -62.381
1218.8000, -62.421
1219.0000, -62.398
1219.2000, -62.435
1219.4000, -62.356
1219.6000, -62.266
1219.8000, -62.327
1220.0000, -62.460
1220.2000, -62.379
1220.4000, -62.428
1220.6000, -62.444
1220.8000, -62.485
1221.0000, -62.545
1221.2000, -62.494
1221.4000, -62.475
1221.6000, -62.460
1221.8000, -62.536
1222.0000, -62.637
1222.2000, -62.561
1222.4000, -62.461
1222.6000, -62.534
1222.8000, -62.459
1223.0000, -62.364
1223.2000, -62.374
1223.4000, -62.527
1223.6000, -62.536
1223.8000, -62.562
1224.0000, -62.508
1224.2000, -62.881
1224.4000, -62.750
1224.6000, -62.509
1224.8000, -62.828
1225.0000, -62.602
1225.2000, -62.759
1225.4000, -62.619
1225.6000, -62.576
1225.8000, -62.650
1226.0000, -62.673
1226.2000, -62.731
1226.4000, -62.764
1226.6000, -62.704
1226.8000, -62.920
1227.0000, -62.724
1227.2000, -62.615
1227.4000, -62.683
1227.6000, -62.698
1227.8000, -62.846
1228.0000, -62.825
1228.2000, -62.857
1228.4000, -62.622
1228.6000, -62.673
1228.8000, -62.757
1229.0000, -62.842
1229.2000, -62.791
1229.4000, -62.964
1229.6000, -62.972
1229.8000, -62.938
1230.0000, -62.975
1230.2000, -62.995
1230.4000, -62.985
1230.6000, -62.970
1230.8000, -62.833
1231.0000, -62.950
1231.2000, -62.994
1231.4000, -63.083
1231.6000, -62.960
1231.8000, -62.794
1232.0000, -63.064
1232.2000, -62.978
1232.4000, -63.077
1232.6000, -63.098
1232.8000, -62.935
1233.0000, -63.067
1233.2000, -63.032
1233.4000, -63.157
1233.6000, -62.947
1233.8000, -63.065
1234.0000, -63.112
1234.2000, -63.127
1234.4000, -63.120
1234.6000, -63.172
1234.8000, -62.990
1235.0000, -63.281
1235.2000, -63.297
1235.4000, -63.022
1235.6000, -63.168
1235.8000, -63.167
1236.0000, -63.288
1236.2000, -63.264
1236.4000, -63.214
1236.6000, -63.201
1236.8000, -63.142
1237.0000, -63.242
1237.2000, -63.267
1237.4000, -63.375
1237.6000, -63.373
1237.8000, -63.320
1238.0000, -63.321
1238.2000, -63.283
1238.4000, -63.267
1238.6000, -63.520
1238.8000, -63.424
1239.0000, -63.305
1239.2000, -63.447
1239.4000, -63.469
1239.6000, -63.363
1239.8000, -63.402
1240.0000, -63.358
1240.2000, -63.351
1240.4000, -63.488
1240.6000, -63.329
1240.8000, -63.532
1241.0000, -63.431
1241.2000, -63.507
1241.4000, -63.535
1241.6000, -63.528
1241.8000, -63.544
1242.0000, -63.373
1242.2000, -63.548
1242.4000, -63.644
1242.6000, -63.598
1242.8000, -63.564
1243.0000, -63.661
1243.2000, -63.507
1243.4000, -63.514
1243.6000, -63.645
1243.8000, -63.539
1244.0000, -63.693
1244.2000, -63.755
1244.4000, -63.808
1244.6000, -63.834
1244.8000, -63.778
1245.0000, -63.721
1245.2000, -63.739
1245.4000, -63.719
1245.6000, -63.739
1245.8000, -63.826
1246.0000, -63.763
1246.2000, -63.761
1246.4000, -63.716
1246.6000, -63.709
1246.8000, -63.866
1247.0000, -63.698
1247.2000, -63.794
1247.4000, -63.849
1247.6000, -63.819
1247.8000, -63.771
1248.0000, -63.806
1248.2000, -63.885
1248.4000, -63.921
1248.6000, -63.870
1248.8000, -64.005
1249.0000, -64.050
1249.2000, -63.950
1249.4000, -64.088
1249.6000, -64.043
1249.8000, -63.916
1250.0000, -64.037
1250.2000, -64.053
1250.4000, -64.101
1250.6000, -63.871
1250.8000, -63.938
1251.0000, -64.037
1251.2000, -64.232
1251.4000, -63.973
1251.6000, -63.933
1251.8000, -63.995
1252.0000, -64.171
1252.2000, -64.112
1252.4000, -64.078
1252.6000, -64.278
1252.8000, -64.113
1253.0000, -63.931
1253.2000, -64.231
1253.4000, -64.195
1253.6000, -64.027
1253.8000, -63.994
1254.0000, -64.123
1254.2000, -64.218
1254.4000, -64.150
1254.6000, -64.165
1254.8000, -64.128
1255.0000, -64.246
1255.2000, -64.207
1255.4000, -64.279
1255.6000, -64.072
1255.8000, -64.062
1256.0000, -64.180
1256.2000, -64.368
1256.4000, -64.208
1256.6000, -64.307
1256.8000, -64.037
1257.0000, -64.214
1257.2000, -64.240
1257.4000, -64.182
1257.6000, -64.242
1257.8000, -64.393
1258.0000, -64.359
1258.2000, -64.410
1258.4000, -64.424
1258.6000, -64.439
1258.8000, -64.442
1259.0000, -64.409
1259.2000, -64.421
1259.4000, -64.495
1259.6000, -64.392
1259.8000, -64.422
1260.0000, -64.557
1260.2000, -64.513
1260.4000, -64.396
1260.6000, -64.499
1260.8000, -64.432
1261.0000, -64.369
1261.2000, -64.391
1261.4000, -64.375
1261.6000, -64.457
1261.8000, -64.366
1262.0000, -64.452
1262.2000, -64.625
1262.4000, -64.442
1262.6000, -64.310
1262.8000, -64.477
1263.0000, -64.689
1263.2000, -64.613
1263.4000, -64.697
1263.6000, -64.595
1263.8000, -64.472
1264.0000, -64.645
1264.2000, -64.681
1264.4000, -64.653
1264.6000, -64.632
1264.8000, -64.647
1265.0000, -64.717
1265.2000, -64.627
1265.4000, -64.748
1265.6000, -64.674
1265.8000, -64.774
1266.0000, -64.711
1266.2000, -64.564
1266.4000, -64.700
1266.6000, -64.712
1266.8000, -64.882
1267.0000, -64.778
1267.2000, -64.758
1267.4000, -64.666
1267.6000, -64.856
1267.8000, -64.651
1268.0000, -64.831
1268.2000, -64.750
1268.4000, -64.733
1268.6000, -64.636
1268.8000, -64.670
1269.0000, -64.773
1269.2000, -64.613
1269.4000, -64.758
1269.6000, -64.901
1269.8000, -64.771
1270.0000, -64.974
1270.2000, -64.827
1270.4000, -64.732
1270.6000, -64.803
1270.8000, -64.823
1271.0000, -64.703
1271.2000, -64.721
1271.4000, -64.797
1271.6000, -64.924
1271.8000, -64.974
1272.0000, -64.888
1272.2000, -64.868
1272.4000, -64.849
1272.6000, -64.879
1272.8000, -64.995
1273.0000, -64.969
1273.2000, -64.902
1273.4000, -64.954
1273.6000, -64.997
1273.8000, -65.033
1274.0000, -64.932
1274.2000, -65.026
1274.4000, -64.942
1274.6000, -64.995
1274.8000, -64.957
1275.0000, -65.093
1275.2000, -65.126
1275.4000, -65.257
1275.6000, -65.005
1275.8000, -65.113
1276.0000, -65.276
1276.2000, -65.025
1276.4000, -64.990
1276.6000, -65.163
1276.8000, -65.191
1277.0000, -65.204
1277.2000, -65.216
1277.4000, -65.159
1277.6000, -65.155
1277.8000, -65.335
1278.0000, -65.260
1278.2000, -65.274
1278.4000, -65.102
1278.6000, -65.243
1278.8000, -65.192
1279.0000, -65.302
1279.2000, -65.207
1279.4000, -65.282
1279.6000, -65.252
1279.8000, -65.271
1280.0000, -65.292
1280.2000, -65.309
1280.4000, -65.426
1280.6000, -65.468
1280.8000, -65.360
1281.0000, -65.311
1281.2000, -65.314
1281.4000, -65.408
1281.6000, -65.282
1281.8000, -65.327
1282.0000, -65.437
1282.2000, -65.400
1282.4000, -65.506
1282.6000, -65.317
1282.8000, -65.511
1283.0000, -65.458
1283.2000, -65.486
1283.4000, -65.488
1283.6000, -65.366
1283.8000, -65.360
1284.0000, -65.265
1284.2000, -65.395
1284.4000, -65.379
1284.6000, -65.347
1284.8000, -65.515
1285.0000, -65.505
1285.2000, -65.309
1285.4000, -65.556
1285.6000, -65.485
1285.8000, -65.673
1286.0000, -65.441
1286.2000, -65.328
1286.4000, -65.547
1286.6000, -65.405
1286.8000, -65.526
1287.0000, -65.456
1287.2000, -65.589
1287.4000, -65.657
1287.6000, -65.412
1287.8000, -65.481
1288.0000, -65.533
1288.2000, -65.781
1288.4000, -65.474
1288.6000, -65.618
1288.8000, -65.724
1289.0000, -65.656
1289.2000, -65.742
1289.4000, -65.725
1289.6000, -65.544
1289.8000, -65.760
1290.0000, -65.688
1290.2000, -65.709
1290.4000, -65.681
1290.6000, -65.753
1290.8000, -65.674
1291.0000, -65.563
1291.2000, -65.673
1291.4000, -65.616
1291.6000, -65.656
1291.8000, -65.688
1292.0000, -65.621
1292.2000, -65.915
1292.4000, -65.967
1292.6000, -65.691
1292.8000, -65.834
1293.0000, -65.813
1293.2000, -65.779
1293.4000, -65.949
1293.6000, -65.824
1293.8000, -65.602
1294.0000, -65.713
1294.2000, -65.796
1294.4000, -65.930
1294.6000, -65.949
1294.8000, -65.848
1295.0000, -65.882
1295.2000, -65.965
1295.4000, -65.737
1295.6000, -65.997
1295.8000, -65.905
1296.0000, -66.055
1296.2000, -65.920
1296.4000, -66.123
1296.6000, -65.961
1296.8000, -66.036
1297.0000, -65.861
1297.2000, -66.093
1297.4000, -66.056
1297.6000, -66.044
1297.8000, -66.183
1298.0000, -66.204
1298.2000, -65.807
1298.4000, -66.042
1298.6000, -66.079
1298.8000, -66.270
1299.0000, -66.080
1299.2000, -66.071
1299.4000, -66.039
1299.6000, -65.995
1299.8000, -66.021
1300.0000, -66.254
1300.2000, -66.305
1300.4000, -66.159
1300.6000, -66.212
1300.8000, -66.205
1301.0000, -66.287
1301.2000, -66.189
1301.4000, -66.322
1301.6000, -66.273
1301.8000, -66.235
1302.0000, -66.277
1302.2000, -66.332
1302.4000, -66.183
1302.6000, -66.350
1302.8000, -66.296
1303.0000, -66.119
1303.2000, -66.313
1303.4000, -66.321
1303.6000, -66.374
1303.8000, -66.417
1304.0000, -66.232
1304.2000, -66.307
1304.4000, -66.167
1304.6000, -66.416
1304.8000, -66.421
1305.0000, -66.368
1305.2000, -66.332
1305.4000, -66.297
1305.6000, -66.464
1305.8000, -66.447
1306.0000, -66.399
1306.2000, -66.305
1306.4000, -66.496
1306.6000, -66.422
1306.8000, -66.362
1307.0000, -66.541
1307.2000, -66.493
1307.4000, -66.295
1307.6000, -66.516
1307.8000, -66.552
1308.0000, -66.574
1308.2000, -66.584
1308.4000, -66.531
1308.6000, -66.529
1308.8000, -66.685
1309.0000, -66.763
1309.2000, -66.660
1309.4000, -66.475
1309.6000, -66.445
1309.8000, -66.653
1310.0000, -66.678
1310.2000, -66.680
1310.4000, -67.014
1310.6000, -66.563
1310.8000, -66.693
1311.0000, -66.707
1311.2000, -66.699
1311.4000, -66.782
1311.6000, -66.564
1311.8000, -66.777
1312.0000, -66.623
1312.2000, -66.671
1312.4000, -66.782
1312.6000, -66.814
1312.8000, -66.965
1313.0000, -66.756
1313.2000, -66.671
1313.4000, -66.688
1313.6000, -66.958
1313.8000, -66.756
1314.0000, -66.664
1314.2000, -66.666
1314.4000, -66.847
1314.6000, -66.788
1314.8000, -66.764
1315.0000, -66.671
1315.2000, -66.874
1315.4000, -66.960
1315.6000, -66.887
1315.8000, -66.906
1316.0000, -67.007
1316.2000, -67.050
1316.4000, -66.945
1316.6000, -66.789
1316.8000, -66.908
1317.0000, -67.129
1317.2000, -66.918
1317.4000, -67.030
1317.6000, -66.867
1317.8000, -66.909
1318.0000, -67.182
1318.2000, -66.901
1318.4000, -67.088
1318.6000, -66.801
1318.8000, -67.024
1319.0000, -67.080
1319.2000, -67.234
1319.4000, -67.205
1319.6000, -67.174
1319.8000, -67.052
1320.0000, -67.026
1320.2000, -67.097
1320.4000, -67.313
1320.6000, -67.055
1320.8000, -67.099
1321.0000, -67.215
1321.2000, -67.115
1321.4000, -67.229
1321.6000, -67.414
1321.8000, -67.138
1322.0000, -67.265
1322.2000, -67.292
1322.4000, -67.241
1322.6000, -67.050
1322.8000, -67.244
1323.0000, -67.140
1323.2000, -66.995
1323.4000, -67.296
1323.6000, -67.273
1323.8000, -67.442
1324.0000, -67.454
1324.2000, -67.263
1324.4000, -67.389
1324.6000, -67.346
1324.8000, -67.374
1325.0000, -67.519
1325.2000, -67.411
1325.4000, -67.507
1325.6000, -67.507
1325.8000, -67.555
1326.0000, -67.570
1326.2000, -67.693
1326.4000, -67.704
1326.6000, -67.546
1326.8000, -67.526
1327.0000, -67.426
1327.2000, -67.659
1327.4000, -67.657
1327.6000, -67.783
1327.8000, -67.794
1328.0000, -67.695
1328.2000, -67.722
1328.4000, -67.530
1328.6000, -67.670
1328.8000, -67.698
1329.0000, -67.757
1329.2000, -67.442
1329.4000, -67.645
1329.6000, -67.724
1329.8000, -67.901
1330.0000, -67.302
1330.2000, -67.641
1330.4000, -67.632
1330.6000, -67.724
1330.8000, -67.723
1331.0000, -67.686
1331.2000, -67.778
1331.4000, -67.676
1331.6000, -67.741
1331.8000, -67.711
1332.0000, -67.718
1332.2000, -67.810
1332.4000, -67.778
1332.6000, -67.756
1332.8000, -67.822
1333.0000, -67.890
1333.2000, -67.861
1333.4000, -67.870
1333.6000, -67.691
1333.8000, -67.911
1334.0000, -68.129
1334.2000, -67.902
1334.4000, -68.099
1334.6000, -67.916
1334.8000, -68.206
1335.0000, -67.976
1335.2000, -68.155
1335.4000, -68.059
1335.6000, -68.141
1335.8000, -68.224
1336.0000, -68.120
1336.2000, -68.118
1336.4000, -68.059
1336.6000, -67.992
1336.8000, -68.067
1337.0000, -68.382
1337.2000, -68.166
1337.4000, -68.349
1337.6000, -68.276
1337.8000, -68.280
1338.0000, -68.335
1338.2000, -68.179
1338.4000, -68.360
1338.6000, -68.374
1338.8000, -68.309
1339.0000, -68.196
1339.2000, -68.227
1339.4000, -68.301
1339.6000, -68.121
1339.8000, -68.353
1340.0000, -68.394
1340.2000, -68.408
1340.4000, -68.421
1340.6000, -68.414
1340.8000, -68.411
1341.0000, -68.252
1341.2000, -68.382
1341.4000, -68.279
1341.6000, -68.486
1341.8000, -68.497
1342.0000, -68.452
1342.2000, -68.586
1342.4000, -68.747
1342.6000, -68.500
1342.8000, -68.487
1343.0000, -68.596
1343.2000, -68.392
1343.4000, -68.672
1343.6000, -68.602
1343.8000, -68.817
1344.0000, -68.628
1344.2000, -68.804
1344.4000, -68.362
1344.6000, -68.703
1344.8000, -68.801
1345.0000, -68.894
1345.2000, -68.982
1345.4000, -68.841
1345.6000, -68.724
1345.8000, -68.739
1346.0000, -68.895
1346.2000, -68.998
1346.4000, -68.997
1346.6000, -68.721
1346.8000, -68.794
1347.0000, -68.433
1347.2000, -68.896
1347.4000, -68.701
1347.6000, -69.176
1347.8000, -68.931
1348.0000, -69.035
1348.2000, -69.036
1348.4000, -68.907
1348.6000, -68.899
1348.8000, -68.856
1349.0000, -69.071
1349.2000, -68.823
1349.4000, -68.766
1349.6000, -69.006
1349.8000, -68.995
1350.0000, -68.948
1350.2000, -69.715
1350.4000, -69.395
1350.6000, -69.379
1350.8000, -69.101
1351.0000, -69.182
1351.2000, -69.339
1351.4000, -69.526
1351.6000, -69.502
1351.8000, -69.451
1352.0000, -69.568
1352.2000, -69.400
1352.4000, -69.531
1352.6000, -69.452
1352.8000, -69.397
1353.0000, -69.522
1353.2000, -69.339
1353.4000, -69.617
1353.6000, -69.398
1353.8000, -69.368
1354.0000, -69.357
1354.2000, -69.995
1354.4000, -69.950
1354.6000, -70.043
1354.8000, -70.193
1355.0000, -69.976
1355.2000, -69.812
1355.4000, -70.051
1355.6000, -70.199
1355.8000, -69.835
1356.0000, -69.940
1356.2000, -69.900
1356.4000, -69.815
1356.6000, -69.730
1356.8000, -69.942
1357.0000, -69.944
1357.2000, -70.208
1357.4000, -70.171
1357.6000, -69.927
1357.8000, -69.630
1358.0000, -70.088
1358.2000, -70.017
1358.4000, -70.272
1358.6000, -70.133
1358.8000, -70.079
1359.0000, -70.119
1359.2000, -70.492
1359.4000, -70.393
1359.6000, -70.542
1359.8000, -70.799
1360.0000, -70.339
1360.2000, -70.202
1360.4000, -70.289
1360.6000, -70.778
1360.8000, -70.980
1361.0000, -70.751
1361.2000, -71.095
1361.4000, -71.111
1361.6000, -71.385
1361.8000, -71.147
1362.0000, -72.230
1362.2000, -71.616
1362.4000, -71.794
1362.6000, -71.428
1362.8000, -70.547
1363.0000, -70.541
1363.2000, -70.097
1363.4000, -70.425
1363.6000, -70.506
1363.8000, -70.804
1364.0000, -70.583
1364.2000, -71.303
1364.4000, -72.006
1364.6000, -71.586
1364.8000, -71.333
1365.0000, -71.792
1365.2000, -71.672
1365.4000, -71.200
1365.6000, -71.322
1365.8000, -70.841
1366.0000, -70.409
1366.2000, -70.775
1366.4000, -70.622
1366.6000, -71.028
1366.8000, -71.082
1367.0000, -71.394
1367.2000, -71.410
1367.4000, -71.442
1367.6000, -71.308
1367.8000, -71.583
1368.0000, -71.614
1368.2000, -71.913
1368.4000, -71.820
1368.6000, -71.532
1368.8000, -71.361
1369.0000, -71.247
1369.2000, -70.927
1369.4000, -70.849
1369.6000, -71.071
1369.8000, -71.140
1370.0000, -71.606
1370.2000, -71.429
1370.4000, -71.688
1370.6000, -71.609
1370.8000, -71.904
1371.0000, -71.675
1371.2000, -72.024
1371.4000, -71.556
1371.6000, -71.676
1371.8000, -71.606
1372.0000, -71.620
1372.2000, -72.001
1372.4000, -71.617
1372.6000, -71.936
1372.8000, -71.603
1373.0000, -71.637
1373.2000, -71.707
1373.4000, -71.366
1373.6000, -71.542
1373.8000, -71.459
1374.0000, -71.321
1374.2000, -71.878
1374.4000, -72.194
1374.6000, -72.098
1374.8000, -72.192
1375.0000, -71.728
1375.2000, -72.035
1375.4000, -71.743
1375.6000, -71.852
1375.8000, -72.260
1376.0000, -71.964
1376.2000, -72.181
1376.4000, -72.009
1376.6000, -72.372
1376.8000, -72.357
1377.0000, -72.942
1377.2000, -72.188
1377.4000, -72.520
1377.6000, -72.319
1377.8000, -72.353
1378.0000, -72.377
1378.2000, -72.444
1378.4000, -73.161
1378.6000, -73.161
1378.8000, -73.173
1379.0000, -73.206
1379.2000, -72.643
1379.4000, -72.568
1379.6000, -72.403
1379.8000, -72.571
1380.0000, -72.684
1380.2000, -73.251
1380.4000, -74.096
1380.6000, -74.694
1380.8000, -74.534
1381.0000, -74.348
1381.2000, -73.448
1381.4000, -73.308
1381.6000, -72.742
1381.8000, -73.161
1382.0000, -73.051
1382.2000, -74.074
1382.4000, -74.024
1382.6000, -74.897
1382.8000, -74.961
1383.0000, -74.625
1383.2000, -73.841
1383.4000, -73.413
1383.6000, -73.441
1383.8000, -73.505
1384.0000, -73.929
1384.2000, -73.282
1384.4000, -73.920
1384.6000, -74.219
1384.8000, -74.296
1385.0000, -74.439
1385.2000, -74.284
1385.4000, -74.567
1385.6000, -74.399
1385.8000, -73.655
1386.0000, -73.651
1386.2000, -74.004
1386.4000, -73.766
1386.6000, -74.238
1386.8000, -74.133
1387.0000, -73.790
1387.2000, -73.770
1387.4000, -74.054
1387.6000, -74.555
1387.8000, -74.962
1388.0000, -75.144
1388.2000, -74.828
1388.4000, -74.418
1388.6000, -75.037
1388.8000, -74.197
1389.0000, -73.870
1389.2000, -74.323
1389.4000, -74.609
1389.6000, -74.417
1389.8000, -73.891
1390.0000, -74.648
1390.2000, -74.482
1390.4000, -74.589
1390.6000, -74.644
1390.8000, -74.954
1391.0000, -74.305
1391.2000, -74.391
1391.4000, -74.663
1391.6000, -74.889
1391.8000, -75.062
1392.0000, -75.144
1392.2000, -75.701
1392.4000, -75.564
1392.6000, -76.309
1392.8000, -75.946
1393.0000, -74.712
1393.2000, -74.717
1393.4000, -74.397
1393.6000, -75.203
1393.8000, -75.021
1394.0000, -74.906
1394.2000, -75.371
1394.4000, -74.961
1394.6000, -76.009
1394.8000, -76.103
1395.0000, -75.551
1395.2000, -76.466
1395.4000, -76.414
1395.6000, -76.045
1395.8000, -75.879
1396.0000, -75.773
1396.2000, -76.232
1396.4000, -76.384
1396.6000, -75.581
1396.8000, -76.347
1397.0000, -75.521
1397.2000, -75.267
1397.4000, -75.955
1397.6000, -75.944
1397.8000, -76.050
1398.0000, -76.258
1398.2000, -76.268
1398.4000, -75.973
1398.6000, -75.709
1398.8000, -76.037
1399.0000, -75.796
1399.2000, -76.300
1399.4000, -76.024
1399.6000, -77.131
1399.8000, -76.623
1400.0000, -76.538
1400.2000, -76.954
1400.4000, -77.378
1400.6000, -76.833
1400.8000, -78.166
1401.0000, -76.434
1401.2000, -76.226
1401.4000, -75.936
1401.6000, -76.494
1401.8000, -76.771
1402.0000, -75.906
1402.2000, -75.866
1402.4000, -75.410
1402.6000, -75.248
1402.8000, -76.109
1403.0000, -75.976
1403.2000, -76.941
1403.4000, -77.192
1403.6000, -75.935
1403.8000, -76.632
1404.0000, -77.156
1404.2000, -76.465
1404.4000, -76.671
1404.6000, -77.004
1404.8000, -76.894
1405.0000, -76.650
1405.2000, -75.976
1405.4000, -75.796
1405.6000, -75.606
1405.8000, -76.541
1406.0000, -76.602
1406.2000, -76.146
1406.4000, -77.170
1406.6000, -76.709
1406.8000, -77.252
1407.0000, -77.569
1407.2000, -76.865
1407.4000, -77.283
1407.6000, -76.703
1407.8000, -76.485
1408.0000, -76.468
1408.2000, -76.723
1408.4000, -76.829
1408.6000, -77.073
1408.8000, -76.157
1409.0000, -77.234
1409.2000, -77.744
1409.4000, -75.707
1409.6000, -76.573
1409.8000, -77.616
1410.0000, -76.517
1410.2000, -76.554
1410.4000, -75.868
1410.6000, -76.497
1410.8000, -75.476
1411.0000, -76.563
1411.2000, -76.550
1411.4000, -76.919
1411.6000, -75.717
1411.8000, -75.978
1412.0000, -76.541
1412.2000, -76.473
1412.4000, -77.017
1412.6000, -75.901
1412.8000, -76.553
1413.0000, -76.458
1413.2000, -76.741
1413.4000, -76.554
1413.6000, -76.168
1413.8000, -76.363
1414.0000, -77.851
1414.2000, -76.763
1414.4000, -76.868
1414.6000, -76.984
1414.8000, -76.551
1415.0000, -76.846
1415.2000, -76.865
1415.4000, -77.540
1415.6000, -76.472
1415.8000, -75.886
1416.0000, -75.901
1416.2000, -76.184
1416.4000, -76.971
1416.6000, -76.326
1416.8000, -75.897
1417.0000, -76.914
1417.2000, -77.330
1417.4000, -76.166
1417.6000, -77.002
1417.8000, -76.875
1418.0000, -76.696
1418.2000, -76.480
1418.4000, -76.355
1418.6000, -76.175
1418.8000, -77.710
1419.0000, -77.569
1419.2000, -77.381
1419.4000, -76.904
1419.6000, -76.882
1419.8000, -76.671
1420.0000, -76.806
1420.2000, -76.957
1420.4000, -76.699
1420.6000, -76.205
1420.8000, -76.573
1421.0000, -76.912
1421.2000, -75.958
1421.4000, -76.626
1421.6000, -76.825
1421.8000, -77.053
1422.0000, -76.092
1422.2000, -76.643
1422.4000, -76.796
1422.6000, -79.465
1422.8000, -76.951
1423.0000, -76.542
1423.2000, -77.180
1423.4000, -75.897
1423.6000, -77.831
1423.8000, -76.621
1424.0000, -77.260
1424.2000, -77.068
1424.4000, -76.306
1424.6000, -76.403
1424.8000, -76.581
1425.0000, -77.702
1425.2000, -75.953
1425.4000, -76.692
1425.6000, -78.360
1425.8000, -77.104
1426.0000, -77.267
1426.2000, -76.910
1426.4000, -76.361
1426.6000, -77.376
1426.8000, -76.602
1427.0000, -76.941
1427.2000, -77.466
1427.4000, -77.468
1427.6000, -76.332
1427.8000, -77.678
1428.0000, -77.780
1428.2000, -76.364
1428.4000, -77.474
1428.6000, -76.737
1428.8000, -77.241
1429.0000, -76.773
1429.2000, -77.253
1429.4000, -78.219
1429.6000, -76.529
1429.8000, -76.351
1430.0000, -76.921
1430.2000, -76.728
1430.4000, -78.065
1430.6000, -76.681
1430.8000, -76.515
1431.0000, -78.237
1431.2000, -77.170
1431.4000, -77.444
1431.6000, -77.342
1431.8000, -77.103
1432.0000, -76.443
1432.2000, -77.287
1432.4000, -77.220
1432.6000, -76.913
1432.8000, -77.265
1433.0000, -76.446
1433.2000, -77.055
1433.4000, -77.713
1433.6000, -78.819
1433.8000, -76.983
1434.0000, -77.738
1434.2000, -77.707
1434.4000, -76.520
1434.6000, -76.719
1434.8000, -75.947
1435.0000, -76.404
1435.2000, -77.081
1435.4000, -78.122
1435.6000, -76.535
1435.8000, -76.683
1436.0000, -76.281
1436.2000, -77.544
1436.4000, -78.188
1436.6000, -77.309
1436.8000, -76.369
1437.0000, -77.225
1437.2000, -77.377
1437.4000, -77.753
1437.6000, -77.328
1437.8000, -78.009
1438.0000, -78.478
1438.2000, -76.784
1438.4000, -76.988
1438.6000, -76.714
1438.8000, -77.272
1439.0000, -76.879
1439.2000, -77.094
1439.4000, -76.535
1439.6000, -76.859
1439.8000, -77.018
1440.0000, -76.807
1440.2000, -77.023
1440.4000, -78.568
1440.6000, -76.508
1440.8000, -77.706
1441.0000, -77.298
1441.2000, -77.675
1441.4000, -78.712
1441.6000, -77.820
1441.8000, -77.840
1442.0000, -77.516
1442.2000, -78.284
1442.4000, -78.954
1442.6000, -77.812
1442.8000, -78.104
1443.0000, -78.054
1443.2000, -78.208
1443.4000, -76.878
1443.6000, -77.681
1443.8000, -77.604
1444.0000, -77.719
1444.2000, -77.214
1444.4000, -79.528
1444.6000, -76.755
1444.8000, -77.815
1445.0000, -77.064
1445.2000, -78.003
1445.4000, -77.905
1445.6000, -78.804
1445.8000, -79.550
1446.0000, -78.352
1446.2000, -77.733
1446.4000, -78.102
1446.6000, -77.796
1446.8000, -78.125
1447.0000, -78.188
1447.2000, -76.745
1447.4000, -77.501
1447.6000, -77.750
1447.8000, -77.477
1448.0000, -76.327
1448.2000, -77.233
1448.4000, -78.733
1448.6000, -77.623
1448.8000, -78.181
1449.0000, -77.790
1449.2000, -77.057
1449.4000, -77.802
1449.6000, -76.592
1449.8000, -76.987
1450.0000, -77.601
1450.2000, -77.349
1450.4000, -78.337
1450.6000, -77.740
1450.8000, -78.377
1451.0000, -80.226
1451.2000, -77.315
1451.4000, -78.159
1451.6000, -77.457
1451.8000, -77.766
1452.0000, -78.488
1452.2000, -77.389
1452.4000, -78.708
1452.6000, -78.023
1452.8000, -77.010
1453.0000, -78.161
1453.2000, -78.610
1453.4000, -77.428
1453.6000, -79.103
1453.8000, -77.285
1454.0000, -77.812
1454.2000, -78.048
1454.4000, -78.075
1454.6000, -79.095
1454.8000, -78.922
1455.0000, -77.818
1455.2000, -77.720
1455.4000, -79.586
1455.6000, -77.955
1455.8000, -80.078
1456.0000, -78.188
1456.2000, -78.185
1456.4000, -76.931
1456.6000, -79.409
1456.8000, -77.863
1457.0000, -77.570
1457.2000, -77.477
1457.4000, -79.197
1457.6000, -78.075
1457.8000, -78.968
1458.0000, -78.070
1458.2000, -78.378
1458.4000, -77.674
1458.6000, -78.899
1458.8000, -79.297
1459.0000, -78.333
1459.2000, -77.894
1459.4000, -78.872
1459.6000, -79.361
1459.8000, -78.141
1460.0000, -78.583
1460.2000, -79.452
1460.4000, -77.943
1460.6000, -78.629
1460.8000, -77.930
1461.0000, -78.062
1461.2000, -79.006
1461.4000, -77.490
1461.6000, -78.207
1461.8000, -78.632
1462.0000, -79.023
1462.2000, -79.890
1462.4000, -79.347
1462.6000, -81.087
1462.8000, -78.265
1463.0000, -79.969
1463.2000, -78.383
1463.4000, -79.423
1463.6000, -79.847
1463.8000, -78.895
1464.0000, -79.389
1464.2000, -78.165
1464.4000, -79.281
1464.6000, -78.945
1464.8000, -79.417
1465.0000, -78.568
1465.2000, -79.070
1465.4000, -80.013
1465.6000, -78.951
1465.8000, -78.278
1466.0000, -78.354
1466.2000, -79.413
1466.4000, -78.322
1466.6000, -79.436
1466.8000, -79.089
1467.0000, -77.686
1467.2000, -78.251
1467.4000, -77.896
1467.6000, -78.475
1467.8000, -78.231
1468.0000, -79.254
1468.2000, -78.163
1468.4000, -78.538
1468.6000, -78.158
1468.8000, -79.275
1469.0000, -80.582
1469.2000, -79.456
1469.4000, -78.484
1469.6000, -79.997
1469.8000, -78.815
1470.0000, -79.979
1470.2000, -78.881
1470.4000, -79.007
1470.6000, -81.686
1470.8000, -80.659
1471.0000, -81.129
1471.2000, -80.588
1471.4000, -78.950
1471.6000, -79.565
1471.8000, -80.142
1472.0000, -80.022
1472.2000, -79.247
1472.4000, -79.448
1472.6000, -82.240
1472.8000, -80.194
1473.0000, -79.128
1473.2000, -80.887
1473.4000, -80.875
1473.6000, -79.147
1473.8000, -79.280
1474.0000, -80.157
1474.2000, -80.104
1474.4000, -78.999
1474.6000, -80.998
1474.8000, -79.039
1475.0000, -78.629
1475.2000, -79.753
1475.4000, -80.019
1475.6000, -82.113
1475.8000, -80.063
1476.0000, -79.349
1476.2000, -80.901
1476.4000, -80.967
1476.6000, -77.615
1476.8000, -79.282
1477.0000, -78.761
1477.2000, -78.778
1477.4000, -78.861
1477.6000, -79.537
1477.8000, -78.425
1478.0000, -79.075
1478.2000, -78.461
1478.4000, -79.409
1478.6000, -78.996
1478.8000, -79.406
1479.0000, -79.086
1479.2000, -78.407
1479.4000, -80.312
1479.6000, -80.127
1479.8000, -78.648
1480.0000, -81.230
1480.2000, -80.858
1480.4000, -79.663
1480.6000, -79.886
1480.8000, -78.501
1481.0000, -81.083
1481.2000, -80.245
1481.4000, -79.106
1481.6000, -81.103
1481.8000, -78.866
1482.0000, -83.409
1482.2000, -79.553
1482.4000, -78.611
1482.6000, -80.862
1482.8000, -79.927
1483.0000, -80.493
1483.2000, -79.330
1483.4000, -79.784
1483.6000, -78.240
1483.8000, -80.420
1484.0000, -80.273
1484.2000, -80.493
1484.4000, -80.039
1484.6000, -79.128
1484.8000, -81.329
1485.0000, -79.842
1485.2000, -81.026
1485.4000, -79.639
1485.6000, -80.908
1485.8000, -82.227
1486.0000, -80.254
1486.2000, -80.124
1486.4000, -79.572
1486.6000, -81.955
1486.8000, -79.166
1487.0000, -79.909
1487.2000, -81.339
1487.4000, -80.772
1487.6000, -80.224
1487.8000, -82.444
1488.0000, -81.123
1488.2000, -80.021
1488.4000, -81.923
1488.6000, -81.758
1488.8000, -80.748
1489.0000, -78.542
1489.2000, -80.546
1489.4000, -79.798
1489.6000, -80.479
1489.8000, -84.875
1490.0000, -81.161
1490.2000, -80.915
1490.4000, -78.911
1490.6000, -83.042
1490.8000, -81.084
1491.0000, -81.764
1491.2000, -80.387
1491.4000, -80.010
1491.6000, -81.161
1491.8000, -79.316
1492.0000, -83.020
1492.2000, -79.213
1492.4000, -77.961
1492.6000, -79.036
1492.8000, -80.976
1493.0000, -79.712
1493.2000, -81.081
1493.4000, -79.860
1493.6000, -80.050
1493.8000, -79.939
1494.0000, -80.203
1494.2000, -80.183
1494.4000, -78.207
1494.6000, -79.671
1494.8000, -79.238
1495.0000, -79.665
1495.2000, -80.239
1495.4000, -80.315
1495.6000, -80.622
1495.8000, -82.024
1496.0000, -79.026
1496.2000, -79.529
1496.4000, -81.396
1496.6000, -80.531
1496.8000, -80.353
1497.0000, -80.078
1497.2000, -79.878
1497.4000, -81.455
1497.6000, -80.581
1497.8000, -78.633
1498.0000, -81.047
1498.2000, -82.041
1498.4000, -79.754
1498.6000, -80.639
1498.8000, -82.733
1499.0000, -82.963
1499.2000, -79.670
1499.4000, -84.675
1499.6000, -80.591
1499.8000, -84.247
1500.0000, -78.469
1500.2000, -80.472
1500.4000, -80.111
1500.6000, -81.135
1500.8000, -79.211
1501.0000, -80.983
1501.2000, -81.535
1501.4000, -80.681
1501.6000, -81.853
1501.8000, -79.759
1502.0000, -81.832
1502.2000, -82.152
1502.4000, -80.659
1502.6000, -80.786
1502.8000, -80.662
1503.0000, -84.267
1503.2000, -78.866
1503.4000, -81.552
1503.6000, -84.537
1503.8000, -81.492
1504.0000, -78.224
1504.2000, -80.791
1504.4000, -82.869
1504.6000, -78.532
1504.8000, -80.093
1505.0000, -85.148
1505.2000, -80.020
1505.4000, -80.271
1505.6000, -80.585
1505.8000, -80.312
1506.0000, -83.758
1506.2000, -80.625
1506.4000, -80.153
1506.6000, -83.300
1506.8000, -83.378
1507.0000, -84.046
1507.2000, -80.641
1507.4000, -79.802
1507.6000, -81.162
1507.8000, -79.875
1508.0000, -81.556
1508.2000, -79.587
1508.4000, -81.067
1508.6000, -82.398
1508.8000, -83.368
1509.0000, -80.724
1509.2000, -81.540
1509.4000, -81.823
1509.6000, -78.681
1509.8000, -80.163
1510.0000, -80.062
1510.2000, -79.833
1510.4000, -78.651
1510.6000, -82.432
1510.8000, -80.852
1511.0000, -83.973
1511.2000, -80.015
1511.4000, -79.524
1511.6000, -82.159
1511.8000, -81.941
1512.0000, -81.965
1512.2000, -80.095
1512.4000, -79.805
1512.6000, -82.105
1512.8000, -81.866
1513.0000, -81.669
1513.2000, -82.888
1513.4000, -79.446
1513.6000, -83.071
1513.8000, -79.324
1514.0000, -84.191
1514.2000, -81.225
1514.4000, -82.473
1514.6000, -81.865
1514.8000, -81.060
1515.0000, -80.559
1515.2000, -83.350
1515.4000, -83.766
1515.6000, -81.835
1515.8000, -80.750
1516.0000, -84.655
1516.2000, -83.307
1516.4000, -80.999
1516.6000, -80.963
1516.8000, -87.169
1517.0000, -82.083
1517.2000, -81.577
1517.4000, -79.359
1517.6000, -80.450
1517.8000, -80.456
1518.0000, -82.609
1518.2000, -82.976
1518.4000, -80.805
1518.6000, -82.381
1518.8000, -83.335
1519.0000, -82.663
1519.2000, -82.693
1519.4000, -83.916
1519.6000, -82.685
1519.8000, -81.588
1520.0000, -78.395
1520.2000, -80.905
1520.4000, -84.432
1520.6000, -81.466
1520.8000, -82.261
1521.0000, -80.229
1521.2000, -84.900
1521.4000, -80.593
1521.6000, -83.297
1521.8000, -82.081
1522.0000, -82.877
1522.2000, -82.239
1522.4000, -84.835
1522.6000, -81.462
1522.8000, -81.722
1523.0000, -83.005
1523.2000, -81.095
1523.4000, -83.555
1523.6000, -80.350
1523.8000, -81.249
1524.0000, -84.360
1524.2000, -81.697
1524.4000, -86.292
1524.6000, -91.193
1524.8000, -82.586
1525.0000, -86.849
1525.2000, -85.771
1525.4000, -84.480
1525.6000, -84.074
1525.8000, -83.640
1526.0000, -82.288
1526.2000, -84.112
1526.4000, -83.074
1526.6000, -83.731
1526.8000, -81.541
1527.0000, -80.607
1527.2000, -80.000
1527.4000,-210.000
1527.6000, -81.043
1527.8000, -85.094
1528.0000, -81.324
1528.2000, -86.773
1528.4000, -80.876
1528.6000, -82.794
1528.8000, -83.346
1529.0000, -81.577
1529.2000, -80.332
1529.4000, -80.773
1529.6000, -85.082
1529.8000, -86.973
1530.0000, -81.438
1530.2000, -82.969
1530.4000, -81.546
1530.6000, -82.356
1530.8000, -84.478
1531.0000, -80.259
1531.2000, -82.093
1531.4000, -81.249
1531.6000, -84.106
1531.8000, -81.559
1532.0000, -80.276
1532.2000, -81.135
1532.4000, -83.486
1532.6000, -82.424
1532.8000, -85.921
1533.0000, -82.174
1533.2000, -91.461
1533.4000, -83.892
1533.6000, -83.043
1533.8000, -81.595
1534.0000, -86.260
1534.2000, -84.597
1534.4000, -90.713
1534.6000,-210.000
1534.8000, -83.116
1535.0000, -82.279
1535.2000, -81.274
1535.4000, -82.262
1535.6000, -84.944
1535.8000, -81.001
1536.0000, -82.095
1536.2000, -80.571
1536.4000, -81.526
1536.6000, -82.821
1536.8000, -85.586
1537.0000, -87.310
1537.2000, -86.628
1537.4000, -82.841
1537.6000, -81.004
1537.8000, -82.502
1538.0000, -82.192
1538.2000, -81.101
1538.4000, -86.926
1538.6000, -86.007
1538.8000, -79.896
1539.0000, -83.134
1539.2000, -83.839
1539.4000, -82.679
1539.6000, -83.424
1539.8000, -82.625
1540.0000, -84.515
1540.2000, -83.322
1540.4000, -82.180
1540.6000, -81.639
1540.8000, -81.020
1541.0000, -82.158
1541.2000, -84.693
1541.4000, -82.943
1541.6000,-210.000
1541.8000, -82.012
1542.0000, -80.560
1542.2000, -81.357
1542.4000, -83.640
1542.6000, -79.792
1542.8000, -82.769
1543.0000, -87.760
1543.2000, -84.088
1543.4000, -87.357
1543.6000, -83.602
1543.8000, -82.064
1544.0000, -82.054
1544.2000, -87.136
1544.4000, -85.164
1544.6000, -81.206
1544.8000, -84.471
1545.0000,-210.000
1545.2000, -85.745
1545.4000, -88.706
1545.6000, -85.636
1545.8000, -90.941
1546.0000, -81.577
1546.2000, -82.293
1546.4000, -83.247
1546.6000, -82.228
1546.8000, -83.484
1547.0000, -83.857
1547.2000, -81.483
1547.4000, -83.148
1547.6000, -83.824
1547.8000, -81.908
1548.0000, -81.909
1548.2000, -84.289
1548.4000,-210.000
1548.6000,-210.000
1548.8000, -83.219
1549.0000, -82.753
1549.2000, -80.868
1549.4000, -84.034
1549.6000, -87.383
1549.8000, -85.851
1550.0000, -85.052
1550.2000, -83.272
1550.4000, -83.479
1550.6000, -84.333
1550.8000, -80.105
1551.0000, -89.746
1551.2000, -80.554
1551.4000, -84.232
1551.6000, -91.320
1551.8000, -82.015
1552.0000, -83.427
1552.2000, -81.982
1552.4000, -89.067
1552.6000, -84.124
1552.8000, -81.855
1553.0000, -88.629
1553.2000, -80.403
1553.4000, -83.503
1553.6000, -83.306
1553.8000, -80.248
1554.0000, -91.568
1554.2000, -84.623
1554.4000,-210.000
1554.6000, -85.415
1554.8000, -82.668
1555.0000, -82.832
1555.2000, -83.516
1555.4000, -83.232
1555.6000, -90.034
1555.8000, -89.476
1556.0000, -80.293
1556.2000, -82.720
1556.4000, -87.341
1556.6000, -83.566
1556.8000, -83.513
1557.0000, -83.383
1557.2000, -85.830
1557.4000, -84.138
1557.6000,-210.000
1557.8000, -84.885
1558.0000,-210.000
1558.2000, -84.957
1558.4000, -80.823
1558.6000, -85.398
1558.8000, -82.641
1559.0000, -85.201
1559.2000, -86.175
1559.4000, -89.154
1559.6000, -79.774
1559.8000, -83.275
1560.0000,-210.000
1560.2000, -83.214
1560.4000, -85.318
1560.6000, -84.164
1560.8000, -83.940
1561.0000, -81.337
1561.2000, -84.124
1561.4000, -84.120
1561.6000, -83.555
1561.8000, -86.041
1562.0000, -83.694
1562.2000, -81.092
1562.4000, -82.067
1562.6000,-210.000
1562.8000, -83.082
1563.0000, -90.699
1563.2000, -89.522
1563.4000, -85.363
1563.6000, -87.009
1563.8000, -86.627
1564.0000, -89.726
1564.2000, -83.389
1564.4000, -81.502
1564.6000, -93.428
1564.8000, -81.395
1565.0000, -82.539
1565.2000, -86.299
1565.4000, -84.449
1565.6000,-210.000
1565.8000, -82.426
1566.0000, -88.627
1566.2000, -83.877
1566.4000, -82.444
1566.6000, -82.543
1566.8000, -83.600
1567.0000, -82.031
1567.2000, -85.582
1567.4000,-210.000
1567.6000, -88.149
1567.8000, -82.979
1568.0000, -81.740
1568.2000, -89.651
1568.4000, -87.161
1568.6000, -84.741
1568.8000, -82.068
1569.0000, -82.362
1569.2000, -92.514
1569.4000, -84.716
1569.6000, -81.819
1569.8000, -84.877
1570.0000, -86.957
1570.2000, -89.687
1570.4000, -86.403
1570.6000, -87.417
1570.8000, -82.498
1571.0000, -82.418
1571.2000, -83.503
1571.4000, -86.101
1571.6000, -82.695
1571.8000, -83.574
1572.0000, -83.039
1572.2000, -80.835
1572.4000, -82.772
1572.6000, -86.411
1572.8000,-210.000
1573.0000, -86.972
1573.2000, -83.584
1573.4000, -86.472
1573.6000, -90.859
1573.8000, -82.695
1574.0000, -96.853
1574.2000, -88.550
1574.4000, -85.018
1574.6000, -82.336
1574.8000, -85.177
1575.0000, -87.052
1575.2000, -83.279
1575.4000, -90.781
1575.6000,-100.696
1575.8000, -87.630
1576.0000, -84.313
1576.2000, -84.370
1576.4000,-102.512
1576.6000, -80.790
1576.8000, -91.580
1577.0000, -80.571
1577.2000, -84.462
1577.4000, -91.886
1577.6000, -94.361
1577.8000, -86.235
1578.0000, -83.955
1578.2000, -87.209
1578.4000, -83.336
1578.6000, -94.572
1578.8000, -91.479
1579.0000, -82.968
1579.2000, -81.168
1579.4000, -84.191
1579.6000, -82.441
1579.8000,-210.000
1580.0000, -83.552
1580.2000, -80.881
1580.4000,-210.000
1580.6000, -82.817
1580.8000,-210.000
1581.0000, -87.264
1581.2000, -96.219
1581.4000, -83.477
1581.6000,-210.000
1581.8000, -85.432
1582.0000, -85.190
1582.2000, -81.380
1582.4000, -83.772
1582.6000, -88.811
1582.8000, -82.061
1583.0000, -84.219
1583.2000, -87.413
1583.4000, -83.133
1583.6000, -81.124
1583.8000, -83.636
1584.0000, -93.747
1584.2000, -86.063
1584.4000, -83.618
1584.6000, -89.822
1584.8000, -90.050
1585.0000, -84.910
1585.2000, -83.646
1585.4000, -81.674
1585.6000, -86.233
1585.8000, -84.084
1586.0000, -82.338
1586.2000, -84.444
1586.4000, -82.919
1586.6000, -87.964
1586.8000, -85.832
1587.0000, -92.855
1587.2000, -81.672
1587.4000, -81.139
1587.6000,-210.000
1587.8000, -82.828
1588.0000, -82.068
1588.2000, -82.057
1588.4000, -86.186
1588.6000, -90.932
1588.8000, -83.396
1589.0000, -81.887
1589.2000, -96.283
1589.4000, -84.203
1589.6000, -88.668
1589.8000, -94.885
1590.0000, -81.487
1590.2000,-102.331
1590.4000, -84.657
1590.6000, -86.467
1590.8000, -87.900
1591.0000, -85.290
1591.2000,-210.000
1591.4000, -84.032
1591.6000, -82.500
1591.8000,-210.000
1592.0000, -83.630
1592.2000, -86.756
1592.4000,-210.000
1592.6000, -80.180
1592.8000, -90.164
1593.0000, -89.513
1593.2000, -84.390
1593.4000, -84.821
1593.6000, -86.884
1593.8000, -85.807
1594.0000,-210.000
1594.2000, -89.976
1594.4000, -83.563
1594.6000, -82.223
1594.8000,-210.000
1595.0000, -89.952
1595.2000, -82.589
1595.4000, -93.293
1595.6000, -82.614
1595.8000, -88.620
1596.0000, -84.911
1596.2000,-210.000
1596.4000, -91.864
1596.6000, -81.629
1596.8000, -91.221
1597.0000, -86.329
1597.2000, -81.258
1597.4000,-210.000
1597.6000, -83.122
1597.8000,-210.000
1598.0000, -82.302
1598.2000, -86.043
1598.4000,-210.000
1598.6000,-210.000
1598.8000, -86.619
1599.0000, -90.465
1599.2000, -86.580
1599.4000, -85.052
1599.6000,-210.000
1599.8000, -87.419
1600.0000, -83.202
1600.2000, -87.061
1600.4000, -96.142
1600.6000, -81.986
1600.8000, -85.294
1601.0000,-210.000
1601.2000, -86.878
1601.4000, -82.372
1601.6000, -84.375
1601.8000, -83.763
1602.0000, -89.318
1602.2000, -84.342
1602.4000,-210.000
1602.6000, -84.820
1602.8000,-210.000
1603.0000, -84.326
1603.2000, -94.949
1603.4000,-210.000
1603.6000,-210.000
1603.8000, -81.933
1604.0000, -87.335
1604.2000,-210.000
1604.4000, -90.691
1604.6000, -81.007
1604.8000,-210.000
1605.0000, -84.353
1605.2000, -85.719
1605.4000, -89.900
1605.6000, -92.596
1605.8000, -84.505
1606.0000, -93.184
1606.2000, -84.978
1606.4000,-210.000
1606.6000, -86.321
1606.8000,-210.000
1607.0000, -83.344
1607.2000, -88.201
1607.4000, -82.465
1607.6000,-210.000
1607.8000,-210.000
1608.0000,-210.000
1608.2000, -93.736
1608.4000, -84.932
1608.6000, -87.018
1608.8000, -85.425
1609.0000, -90.067
1609.2000, -87.853
1609.4000, -85.574
1609.6000, -85.687
1609.8000, -81.483
1610.0000, -83.108
1610.2000, -85.792
1610.4000, -83.228
1610.6000, -88.000
1610.8000, -84.895
1611.0000, -90.291
1611.2000, -84.305
1611.4000, -86.863
1611.6000, -87.601
1611.8000, -87.412
1612.0000,-210.000
1612.2000, -83.442
1612.4000, -90.091
1612.6000,-210.000
1612.8000,-210.000
1613.0000,-210.000
1613.2000,-210.000
1613.4000,-210.000
1613.6000, -85.659
1613.8000,-210.000
1614.0000, -84.207
1614.2000, -84.306
1614.4000, -85.715
1614.6000, -89.162
1614.8000, -96.758
1615.0000,-210.000
1615.2000, -86.324
1615.4000, -93.110
1615.6000, -88.987
1615.8000,-210.000
1616.0000, -89.442
1616.2000, -86.717
1616.4000,-210.000
1616.6000,-210.000
1616.8000,-210.000
1617.0000,-210.000
1617.2000, -90.644
1617.4000,-210.000
1617.6000, -80.536
1617.8000,-210.000
1618.0000, -84.944
1618.2000,-210.000
1618.4000, -94.832
1618.6000, -81.817
1618.8000, -85.842
1619.0000, -89.415
1619.2000,-210.000
1619.4000,-210.000
1619.6000, -88.859
1619.8000, -88.671
1620.0000, -83.434
1620.2000, -84.662
1620.4000,-210.000
1620.6000,-210.000
1620.8000,-210.000
1621.0000, -83.227
1621.2000,-210.000
1621.4000,-210.000
1621.6000, -80.542
1621.8000, -90.576
1622.0000,-210.000
1622.2000, -81.819
1622.4000, -85.791
1622.6000,-210.000
1622.8000,-210.000
1623.0000,-210.000
1623.2000,-210.000
1623.4000,-210.000
1623.6000,-210.000
1623.8000,-210.000
1624.0000, -91.921
1624.2000,-210.000
1624.4000, -88.563
1624.6000, -91.648
1624.8000,-210.000
1625.0000, -87.083
1625.2000,-210.000
1625.4000,-210.000
1625.6000,-210.000
1625.8000, -81.348
1626.0000,-210.000
1626.2000, -96.071
1626.4000,-210.000
1626.6000, -92.168
1626.8000, -83.653
1627.0000, -80.736
1627.2000,-210.000
1627.4000, -88.906
1627.6000,-210.000
1627.8000, -86.823
1628.0000,-210.000
1628.2000,-210.000
1628.4000,-210.000
1628.6000,-210.000
1628.8000, -86.052
1629.0000,-210.000
1629.2000, -94.972
1629.4000, -98.145
1629.6000, -89.565
1629.8000, -86.686
1630.0000, -81.990
1630.2000, -88.091
1630.4000, -84.232
1630.6000, -97.017
1630.8000, -89.801
1631.0000, -86.437
1631.2000, -86.214
1631.4000, -84.543
1631.6000, -85.606
1631.8000, -95.679
1632.0000, -95.960
1632.2000,-210.000
1632.4000, -81.033
1632.6000, -87.505
1632.8000,-210.000
1633.0000, -90.792
1633.2000, -88.118
1633.4000,-210.000
1633.6000, -91.779
1633.8000, -91.098
1634.0000,-210.000
1634.2000, -85.501
1634.4000,-210.000
1634.6000, -80.154
1634.8000, -81.743
1635.0000, -95.356
1635.2000, -94.591
1635.4000, -85.706
1635.6000,-210.000
1635.8000,-210.000
1636.0000, -87.492
1636.2000, -81.920
1636.4000, -84.067
1636.6000,-210.000
1636.8000, -85.491
1637.0000,-210.000
1637.2000, -87.385
1637.4000, -83.586
1637.6000, -92.600
1637.8000,-210.000
1638.0000, -83.686
1638.2000, -86.552
1638.4000,-210.000
1638.6000,-210.000
1638.8000,-210.000
1639.0000,-210.000
1639.2000, -90.364
1639.4000, -83.830
1639.6000, -85.626
1639.8000,-210.000
1640.0000,-210.000
1640.2000, -88.957
1640.4000,-210.000
1640.6000,-210.000
1640.8000, -84.066
1641.0000,-210.000
1641.2000, -83.928
1641.4000, -91.982
1641.6000, -85.628
1641.8000,-101.769
1642.0000,-210.000
1642.2000, -82.828
1642.4000, -87.461
1642.6000,-210.000
1642.8000,-210.000
1643.0000, -85.840
1643.2000, -85.964
1643.4000, -90.373
1643.6000, -85.715
1643.8000, -86.216
1644.0000,-210.000
1644.2000, -90.134
1644.4000,-210.000
1644.6000, -95.019
1644.8000, -87.832
1645.0000, -86.406
1645.2000, -85.299
1645.4000,-210.000
1645.6000, -87.057
1645.8000,-210.000
1646.0000,-210.000
1646.2000,-210.000
1646.4000, -86.526
1646.6000,-210.000
1646.8000, -83.140
1647.0000,-210.000
1647.2000,-210.000
1647.4000, -92.754
1647.6000, -82.251
1647.8000, -89.283
1648.0000,-210.000
1648.2000, -93.289
1648.4000,-210.000
1648.6000, -84.911
1648.8000, -82.568
1649.0000, -92.884
1649.2000, -92.903
1649.4000, -82.218
1649.6000, -94.809
1649.8000,-105.472
1650.0000, -86.614
1650.2000, -83.254
1650.4000,-210.000
1650.6000,-210.000
1650.8000, -82.673
1651.0000,-210.000
1651.2000,-210.000
1651.4000, -87.085
1651.6000, -90.601
1651.8000,-210.000
1652.0000,-210.000
1652.2000, -82.184
1652.4000, -82.850
1652.6000, -92.276
1652.8000, -84.860
1653.0000, -90.148
1653.2000, -81.420
1653.4000,-210.000
1653.6000,-101.081
1653.8000,-210.000
1654.0000, -83.813
1654.2000, -90.859
1654.4000,-114.527
1654.6000, -88.982
1654.8000, -88.878
1655.0000,-210.000
1655.2000,-210.000
1655.4000, -83.358
1655.6000,-210.000
1655.8000, -91.896
1656.0000, -97.995
1656.2000, -89.220
1656.4000,-210.000
1656.6000, -89.614
1656.8000, -83.864
1657.0000, -91.191
1657.2000, -81.042
1657.4000, -89.229
1657.6000, -86.974
1657.8000, -82.263
1658.0000,-210.000
1658.2000, -94.596
1658.4000,-210.000
1658.6000,-210.000
1658.8000,-210.000
1659.0000, -85.142
1659.2000,-210.000
1659.4000, -80.962
1659.6000,-210.000
1659.8000,-210.000
1660.0000, -84.493
1660.2000, -80.963
1660.4000,-210.000
1660.6000,-210.000
1660.8000, -84.371
1661.0000,-210.000
1661.2000, -86.299
1661.4000,-210.000
1661.6000, -83.284
1661.8000,-210.000
1662.0000, -83.417
1662.2000,-210.000
1662.4000, -91.111
1662.6000,-210.000
1662.8000, -78.961
1663.0000,-210.000
1663.2000,-210.000
1663.4000,-210.000
1663.6000, -83.113
1663.8000, -80.370
1664.0000, -87.701
1664.2000, -79.703
1664.4000,-210.000
1664.6000,-210.000
1664.8000,-210.000
1665.0000, -90.533
1665.2000,-210.000
1665.4000,-210.000
1665.6000,-210.000
1665.8000, -90.586
1666.0000,-210.000
1666.2000, -83.582
1666.4000, -81.686
1666.6000, -91.088
1666.8000, -82.806
1667.0000,-210.000
1667.2000,-210.000
1667.4000, -82.957
1667.6000,-210.000
1667.8000,-210.000
1668.0000, -83.268
1668.2000, -82.042
1668.4000, -89.834
1668.6000, -82.678
1668.8000,-210.000
1669.0000, -82.262
1669.2000,-210.000
1669.4000,-210.000
1669.6000, -77.213
1669.8000,-210.000
1670.0000,-210.000
1670.2000,-210.000
1670.4000,-210.000
1670.6000, -85.820
1670.8000, -93.068
1671.0000, -85.352
1671.2000,-210.000
1671.4000,-210.000
1671.6000, -89.466
1671.8000, -89.569
1672.0000,-210.000
1672.2000,-210.000
1672.4000, -82.345
1672.6000,-210.000
1672.8000, -88.341
1673.0000,-210.000
1673.2000, -80.669
1673.4000,-210.000
1673.6000, -82.174
1673.8000, -85.206
1674.0000,-210.000
1674.2000, -77.989
1674.4000, -80.253
1674.6000, -77.962
1674.8000, -84.915
1675.0000, -82.864
1675.2000,-210.000
1675.4000,-210.000
1675.6000,-210.000
1675.8000,-210.000
1676.0000, -85.862
1676.2000, -83.062
1676.4000,-210.000
1676.6000, -91.686
1676.8000, -76.759
1677.0000,-210.000
1677.2000,-210.000
1677.4000, -77.169
1677.6000,-210.000
1677.8000,-210.000
1678.0000,-210.000
1678.2000,-210.000
1678.4000,-210.000
1678.6000, -77.056
1678.8000, -83.783
1679.0000,-210.000
1679.2000, -77.777
1679.4000,-210.000
1679.6000, -85.973
1679.8000, -96.833
1680.0000, -88.154
1680.2000, -83.461
1680.4000,-210.000
1680.6000, -85.433
1680.8000, -84.107
1681.0000, -78.231
1681.2000, -80.861
1681.4000,-210.000
1681.6000,-210.000
1681.8000,-210.000
1682.0000, -81.758
1682.2000, -78.725
1682.4000, -77.356
1682.6000, -89.186
1682.8000, -77.587
1683.0000, -74.066
1683.2000, -89.310
1683.4000,-210.000
1683.6000, -79.207
1683.8000,-210.000
1684.0000,-210.000
1684.2000,-210.000
1684.4000, -88.779
1684.6000,-210.000
1684.8000,-210.000
1685.0000,-210.000
1685.2000, -83.753
1685.4000, -80.930
1685.6000,-210.000
1685.8000,-210.000
1686.0000, -88.152
1686.2000, -86.710
1686.4000, -95.875
1686.6000, -78.254
1686.8000, -79.495
1687.0000,-210.000
1687.2000, -75.503
1687.4000,-210.000
1687.6000,-210.000
1687.8000, -75.528
1688.0000, -78.094
1688.2000, -75.132
1688.4000, -75.994
1688.6000,-210.000
1688.8000,-210.000
1689.0000, -85.033
1689.2000,-210.000
1689.4000,-210.000
1689.6000, -85.497
1689.8000,-210.000
1690.0000,-210.000
1690.2000,-210.000
1690.4000,-210.000
1690.6000,-210.000
1690.8000,-210.000
1691.0000, -80.702
1691.2000, -76.228
1691.4000, -79.055
1691.6000,-210.000
1691.8000,-210.000
1692.0000, -77.986
1692.2000,-210.000
1692.4000,-210.000
1692.6000,-210.000
1692.8000,-210.000
1693.0000,-210.000
1693.2000, -84.206
1693.4000,-210.000
1693.6000,-210.000
1693.8000, -80.236
1694.0000,-210.000
1694.2000, -80.820
1694.4000, -77.423
1694.6000, -79.356
1694.8000, -73.612
1695.0000, -83.871
1695.2000, -77.415
1695.4000,-210.000
1695.6000,-210.000
1695.8000, -85.588
1696.0000,-210.000
1696.2000, -79.757
1696.4000, -75.583
1696.6000,-210.000
1696.8000, -82.436
1697.0000, -80.481
1697.2000,-210.000
1697.4000,-210.000
1697.6000,-210.000
1697.8000, -76.922
1698.0000, -76.494
1698.2000,-210.000
1698.4000,-210.000
1698.6000,-210.000
1698.8000,-210.000
1699.0000,-210.000
1699.2000, -77.990
1699.4000,-210.000
1699.6000, -78.093
1699.8000,-210.000
1700.0000,-210.000
