74CSV  	
// AQ6374 OPTICAL SPECTRUM ANALYZER //                  
35
"CTRWL",1125.000000
"SPAN",1150.000000
"START WL", 550.000000
"STOP WL",1700.000000
"WLFREQ", 0
"REFL",-56.6
"LSCL", 5.0
"RESLN",1.000
"AVG",   1
"SMPLAUTO",      1
"SMPL",       5751
"SMPLINTVL",0.2000
"HIGH1"
"MEAS"
"LSUNT",0
"NMSKH","OFF"
"RESCOR",0
"SMOOTH",0
"MEASWL",1
"SWPSPD",0
"MODELNAME","AQ6374"
"CHGPT",        102
"RESCAL0_0",       9996
"RESCAL0_1",       -866
"RESCAL0_2",    1341521
"RESCAL1_0",      10053
"RESCAL1_1",          0
"RESCAL1_2",          0
"CORESIZE", 0






"[TRACE DATA]"
 550.0000,-210.000
 550.2000,-210.000
 550.4000,-210.000
 550.6000,-210.000
 550.8000,-210.000
 551.0000,-210.000
 551.2000,-210.000
 551.4000,-210.000
 551.6000,-210.000
 551.8000,-210.000
 552.0000,-210.000
 552.2000,-210.000
 552.4000,-210.000
 552.6000,-210.000
 552.8000,-210.000
 553.0000, -75.964
 553.2000,-210.000
 553.4000,-210.000
 553.6000,-210.000
 553.8000, -74.253
 554.0000,-210.000
 554.2000, -72.446
 554.4000,-210.000
 554.6000,-210.000
 554.8000,-210.000
 555.0000, -70.777
 555.2000,-210.000
 555.4000,-210.000
 555.6000, -68.047
 555.8000,-210.000
 556.0000,-210.000
 556.2000,-210.000
 556.4000,-210.000
 556.6000, -72.487
 556.8000,-210.000
 557.0000, -70.727
 557.2000,-210.000
 557.4000, -73.485
 557.6000,-210.000
 557.8000, -73.407
 558.0000, -71.304
 558.2000,-210.000
 558.4000, -70.971
 558.6000,-210.000
 558.8000,-210.000
 559.0000, -78.546
 559.2000,-210.000
 559.4000, -73.382
 559.6000, -76.605
 559.8000, -76.810
 560.0000, -71.124
 560.2000, -71.785
 560.4000, -73.536
 560.6000,-210.000
 560.8000,-210.000
 561.0000,-210.000
 561.2000,-210.000
 561.4000, -73.100
 561.6000,-210.000
 561.8000,-210.000
 562.0000,-210.000
 562.2000, -65.956
 562.4000, -73.008
 562.6000,-210.000
 562.8000, -67.251
 563.0000, -77.828
 563.2000, -70.609
 563.4000,-210.000
 563.6000, -73.233
 563.8000,-210.000
 564.0000,-210.000
 564.2000,-210.000
 564.4000,-210.000
 564.6000,-210.000
 564.8000,-210.000
 565.0000,-210.000
 565.2000,-210.000
 565.4000,-210.000
 565.6000,-210.000
 565.8000,-210.000
 566.0000,-210.000
 566.2000,-210.000
 566.4000, -73.863
 566.6000,-210.000
 566.8000, -91.099
 567.0000,-210.000
 567.2000, -76.209
 567.4000, -78.524
 567.6000,-210.000
 567.8000,-210.000
 568.0000, -75.505
 568.2000,-210.000
 568.4000,-210.000
 568.6000,-210.000
 568.8000,-210.000
 569.0000, -75.765
 569.2000, -80.418
 569.4000, -70.600
 569.6000, -74.443
 569.8000, -74.179
 570.0000,-210.000
 570.2000,-210.000
 570.4000,-210.000
 570.6000, -79.173
 570.8000,-210.000
 571.0000,-210.000
 571.2000,-210.000
 571.4000,-210.000
 571.6000,-210.000
 571.8000, -72.228
 572.0000, -69.626
 572.2000, -74.200
 572.4000, -82.039
 572.6000,-210.000
 572.8000,-210.000
 573.0000,-210.000
 573.2000,-210.000
 573.4000,-210.000
 573.6000,-210.000
 573.8000, -75.056
 574.0000, -76.273
 574.2000,-210.000
 574.4000,-210.000
 574.6000, -76.168
 574.8000,-210.000
 575.0000,-210.000
 575.2000,-210.000
 575.4000,-210.000
 575.6000,-210.000
 575.8000, -80.598
 576.0000, -73.003
 576.2000,-210.000
 576.4000,-210.000
 576.6000,-210.000
 576.8000, -74.525
 577.0000, -77.372
 577.2000,-210.000
 577.4000,-210.000
 577.6000,-210.000
 577.8000, -73.154
 578.0000, -71.566
 578.2000,-210.000
 578.4000,-210.000
 578.6000,-210.000
 578.8000,-210.000
 579.0000,-210.000
 579.2000,-210.000
 579.4000, -74.202
 579.6000, -76.500
 579.8000,-210.000
 580.0000,-210.000
 580.2000,-210.000
 580.4000, -73.561
 580.6000,-210.000
 580.8000,-210.000
 581.0000, -72.285
 581.2000,-210.000
 581.4000,-210.000
 581.6000, -78.002
 581.8000,-210.000
 582.0000,-210.000
 582.2000,-210.000
 582.4000,-210.000
 582.6000,-210.000
 582.8000,-210.000
 583.0000, -71.407
 583.2000, -77.141
 583.4000, -73.717
 583.6000, -76.114
 583.8000,-210.000
 584.0000,-210.000
 584.2000,-210.000
 584.4000, -78.975
 584.6000,-210.000
 584.8000,-210.000
 585.0000, -76.838
 585.2000, -75.100
 585.4000,-210.000
 585.6000, -83.563
 585.8000,-210.000
 586.0000,-210.000
 586.2000, -71.876
 586.4000, -76.272
 586.6000,-210.000
 586.8000,-210.000
 587.0000,-210.000
 587.2000,-210.000
 587.4000,-210.000
 587.6000, -75.312
 587.8000,-210.000
 588.0000, -83.166
 588.2000, -77.545
 588.4000,-210.000
 588.6000, -71.214
 588.8000,-210.000
 589.0000,-210.000
 589.2000,-210.000
 589.4000,-210.000
 589.6000, -81.412
 589.8000,-210.000
 590.0000, -73.989
 590.2000, -76.633
 590.4000,-210.000
 590.6000, -70.464
 590.8000,-210.000
 591.0000, -74.162
 591.2000,-210.000
 591.4000, -71.575
 591.6000, -74.544
 591.8000, -76.911
 592.0000,-210.000
 592.2000, -71.899
 592.4000, -81.321
 592.6000, -72.597
 592.8000, -75.499
 593.0000,-210.000
 593.2000,-210.000
 593.4000, -76.188
 593.6000,-210.000
 593.8000,-210.000
 594.0000,-210.000
 594.2000, -89.338
 594.4000, -76.581
 594.6000, -72.352
 594.8000, -70.419
 595.0000, -84.451
 595.2000, -76.222
 595.4000,-210.000
 595.6000, -76.605
 595.8000, -74.455
 596.0000, -73.526
 596.2000, -92.467
 596.4000, -74.789
 596.6000,-210.000
 596.8000,-210.000
 597.0000,-210.000
 597.2000, -76.349
 597.4000,-210.000
 597.6000, -75.214
 597.8000, -79.262
 598.0000,-210.000
 598.2000, -73.392
 598.4000, -80.402
 598.6000, -79.576
 598.8000,-210.000
 599.0000,-210.000
 599.2000,-210.000
 599.4000,-210.000
 599.6000, -76.841
 599.8000,-210.000
 600.0000,-210.000
 600.2000, -86.333
 600.4000,-210.000
 600.6000, -70.168
 600.8000, -80.258
 601.0000, -74.481
 601.2000, -79.335
 601.4000, -73.478
 601.6000, -80.710
 601.8000,-210.000
 602.0000, -81.385
 602.2000, -73.511
 602.4000, -78.672
 602.6000, -85.820
 602.8000, -74.753
 603.0000,-210.000
 603.2000, -81.938
 603.4000, -82.995
 603.6000, -79.115
 603.8000, -80.685
 604.0000, -80.343
 604.2000,-210.000
 604.4000, -76.868
 604.6000, -82.796
 604.8000, -78.190
 605.0000, -72.759
 605.2000, -75.424
 605.4000, -87.137
 605.6000,-210.000
 605.8000, -74.507
 606.0000, -71.879
 606.2000,-210.000
 606.4000, -74.767
 606.6000,-210.000
 606.8000, -75.393
 607.0000, -76.468
 607.2000, -81.985
 607.4000,-210.000
 607.6000, -70.515
 607.8000, -73.624
 608.0000,-210.000
 608.2000,-210.000
 608.4000, -77.256
 608.6000, -75.352
 608.8000, -78.590
 609.0000, -73.685
 609.2000, -74.688
 609.4000, -73.091
 609.6000, -72.713
 609.8000, -81.731
 610.0000, -73.607
 610.2000,-210.000
 610.4000, -83.074
 610.6000, -79.755
 610.8000, -71.141
 611.0000,-210.000
 611.2000,-210.000
 611.4000, -75.808
 611.6000, -72.937
 611.8000, -73.372
 612.0000, -73.443
 612.2000, -72.340
 612.4000,-210.000
 612.6000, -71.477
 612.8000, -77.077
 613.0000, -78.403
 613.2000, -77.559
 613.4000, -78.877
 613.6000, -77.433
 613.8000,-210.000
 614.0000, -74.971
 614.2000, -85.860
 614.4000, -71.900
 614.6000, -72.826
 614.8000, -72.831
 615.0000, -69.276
 615.2000, -72.241
 615.4000, -74.504
 615.6000, -92.335
 615.8000, -72.528
 616.0000, -72.165
 616.2000, -73.846
 616.4000, -72.832
 616.6000, -75.199
 616.8000,-210.000
 617.0000, -73.260
 617.2000, -82.081
 617.4000, -75.430
 617.6000, -73.789
 617.8000, -78.561
 618.0000, -73.190
 618.2000, -74.939
 618.4000, -71.072
 618.6000, -74.603
 618.8000, -72.808
 619.0000, -71.351
 619.2000, -71.477
 619.4000, -75.180
 619.6000, -73.398
 619.8000, -71.522
 620.0000, -70.833
 620.2000, -72.794
 620.4000, -74.356
 620.6000, -72.139
 620.8000, -70.660
 621.0000, -72.559
 621.2000, -70.262
 621.4000, -69.507
 621.6000, -73.272
 621.8000, -71.702
 622.0000, -70.245
 622.2000, -70.757
 622.4000, -72.270
 622.6000, -70.864
 622.8000, -71.259
 623.0000, -71.570
 623.2000, -71.462
 623.4000, -70.084
 623.6000, -73.185
 623.8000, -72.464
 624.0000, -71.313
 624.2000, -70.450
 624.4000, -70.839
 624.6000, -70.262
 624.8000, -69.362
 625.0000, -71.048
 625.2000, -68.696
 625.4000, -70.559
 625.6000, -69.441
 625.8000, -70.619
 626.0000, -69.826
 626.2000, -69.355
 626.4000, -68.241
 626.6000, -69.682
 626.8000, -70.264
 627.0000, -71.946
 627.2000, -69.339
 627.4000, -70.029
 627.6000, -69.902
 627.8000, -69.311
 628.0000, -69.546
 628.2000, -69.477
 628.4000, -68.646
 628.6000, -68.830
 628.8000, -69.540
 629.0000, -69.729
 629.2000, -67.947
 629.4000, -69.298
 629.6000, -69.796
 629.8000, -70.491
 630.0000, -69.400
 630.2000, -67.564
 630.4000, -68.818
 630.6000, -68.192
 630.8000, -68.025
 631.0000, -68.708
 631.2000, -69.143
 631.4000, -68.422
 631.6000, -69.102
 631.8000, -68.014
 632.0000, -68.327
 632.2000, -67.999
 632.4000, -68.255
 632.6000, -68.172
 632.8000, -68.281
 633.0000, -69.712
 633.2000, -67.736
 633.4000, -68.467
 633.6000, -67.074
 633.8000, -68.567
 634.0000, -68.396
 634.2000, -68.220
 634.4000, -67.901
 634.6000, -67.576
 634.8000, -67.178
 635.0000, -67.894
 635.2000, -68.174
 635.4000, -68.761
 635.6000, -68.559
 635.8000, -67.977
 636.0000, -67.063
 636.2000, -68.495
 636.4000, -68.289
 636.6000, -67.456
 636.8000, -67.414
 637.0000, -67.308
 637.2000, -67.424
 637.4000, -67.353
 637.6000, -67.713
 637.8000, -67.796
 638.0000, -67.019
 638.2000, -67.065
 638.4000, -66.782
 638.6000, -66.613
 638.8000, -67.612
 639.0000, -67.222
 639.2000, -67.183
 639.4000, -66.537
 639.6000, -66.592
 639.8000, -66.881
 640.0000, -66.473
 640.2000, -67.364
 640.4000, -66.647
 640.6000, -67.202
 640.8000, -66.274
 641.0000, -66.515
 641.2000, -66.834
 641.4000, -66.325
 641.6000, -66.071
 641.8000, -66.251
 642.0000, -67.015
 642.2000, -66.428
 642.4000, -66.191
 642.6000, -66.153
 642.8000, -66.197
 643.0000, -66.350
 643.2000, -65.950
 643.4000, -65.272
 643.6000, -66.313
 643.8000, -66.369
 644.0000, -66.300
 644.2000, -66.092
 644.4000, -66.293
 644.6000, -66.094
 644.8000, -65.559
 645.0000, -65.970
 645.2000, -65.973
 645.4000, -65.554
 645.6000, -66.198
 645.8000, -66.240
 646.0000, -66.320
 646.2000, -65.668
 646.4000, -65.952
 646.6000, -65.974
 646.8000, -65.905
 647.0000, -65.553
 647.2000, -66.127
 647.4000, -66.060
 647.6000, -65.597
 647.8000, -65.192
 648.0000, -65.844
 648.2000, -65.273
 648.4000, -65.974
 648.6000, -65.296
 648.8000, -65.957
 649.0000, -65.478
 649.2000, -65.523
 649.4000, -65.151
 649.6000, -65.355
 649.8000, -65.532
 650.0000, -65.324
 650.2000, -65.244
 650.4000, -65.509
 650.6000, -65.255
 650.8000, -65.188
 651.0000, -65.362
 651.2000, -65.378
 651.4000, -65.461
 651.6000, -65.302
 651.8000, -65.448
 652.0000, -65.262
 652.2000, -64.933
 652.4000, -64.713
 652.6000, -65.071
 652.8000, -65.288
 653.0000, -64.956
 653.2000, -64.579
 653.4000, -64.777
 653.6000, -64.849
 653.8000, -64.490
 654.0000, -64.879
 654.2000, -65.186
 654.4000, -65.142
 654.6000, -64.725
 654.8000, -65.038
 655.0000, -65.068
 655.2000, -65.245
 655.4000, -64.269
 655.6000, -64.528
 655.8000, -64.394
 656.0000, -64.458
 656.2000, -64.487
 656.4000, -64.796
 656.6000, -64.284
 656.8000, -64.717
 657.0000, -64.715
 657.2000, -64.767
 657.4000, -64.819
 657.6000, -64.636
 657.8000, -64.810
 658.0000, -64.443
 658.2000, -64.480
 658.4000, -64.637
 658.6000, -64.725
 658.8000, -64.617
 659.0000, -64.602
 659.2000, -64.475
 659.4000, -64.254
 659.6000, -64.367
 659.8000, -64.472
 660.0000, -64.241
 660.2000, -64.239
 660.4000, -64.154
 660.6000, -64.459
 660.8000, -64.579
 661.0000, -64.323
 661.2000, -64.126
 661.4000, -64.414
 661.6000, -64.328
 661.8000, -64.268
 662.0000, -64.050
 662.2000, -64.302
 662.4000, -63.885
 662.6000, -63.778
 662.8000, -64.074
 663.0000, -64.198
 663.2000, -64.339
 663.4000, -63.780
 663.6000, -64.145
 663.8000, -64.488
 664.0000, -63.955
 664.2000, -63.855
 664.4000, -64.102
 664.6000, -63.911
 664.8000, -64.282
 665.0000, -64.289
 665.2000, -63.684
 665.4000, -63.825
 665.6000, -64.072
 665.8000, -63.869
 666.0000, -63.798
 666.2000, -63.948
 666.4000, -64.247
 666.6000, -63.655
 666.8000, -63.831
 667.0000, -64.253
 667.2000, -63.764
 667.4000, -63.740
 667.6000, -63.903
 667.8000, -63.600
 668.0000, -63.844
 668.2000, -63.858
 668.4000, -63.819
 668.6000, -63.919
 668.8000, -64.004
 669.0000, -63.782
 669.2000, -63.723
 669.4000, -63.685
 669.6000, -63.630
 669.8000, -64.090
 670.0000, -63.826
 670.2000, -63.680
 670.4000, -63.632
 670.6000, -64.074
 670.8000, -63.814
 671.0000, -63.652
 671.2000, -63.478
 671.4000, -63.968
 671.6000, -63.783
 671.8000, -63.685
 672.0000, -63.817
 672.2000, -63.655
 672.4000, -63.650
 672.6000, -63.792
 672.8000, -63.921
 673.0000, -63.767
 673.2000, -63.549
 673.4000, -63.497
 673.6000, -64.025
 673.8000, -63.567
 674.0000, -63.303
 674.2000, -63.532
 674.4000, -63.661
 674.6000, -63.711
 674.8000, -63.501
 675.0000, -63.762
 675.2000, -63.737
 675.4000, -63.563
 675.6000, -63.500
 675.8000, -63.783
 676.0000, -63.303
 676.2000, -63.282
 676.4000, -63.446
 676.6000, -63.584
 676.8000, -63.431
 677.0000, -63.554
 677.2000, -63.685
 677.4000, -63.554
 677.6000, -63.463
 677.8000, -63.471
 678.0000, -64.029
 678.2000, -63.673
 678.4000, -63.377
 678.6000, -63.376
 678.8000, -63.919
 679.0000, -63.518
 679.2000, -63.658
 679.4000, -63.501
 679.6000, -63.756
 679.8000, -63.773
 680.0000, -63.390
 680.2000, -63.730
 680.4000, -63.440
 680.6000, -63.555
 680.8000, -63.579
 681.0000, -63.473
 681.2000, -63.521
 681.4000, -63.952
 681.6000, -63.641
 681.8000, -63.663
 682.0000, -63.882
 682.2000, -63.615
 682.4000, -63.810
 682.6000, -63.398
 682.8000, -63.866
 683.0000, -63.615
 683.2000, -63.760
 683.4000, -63.750
 683.6000, -63.802
 683.8000, -63.539
 684.0000, -63.639
 684.2000, -63.871
 684.4000, -63.630
 684.6000, -63.676
 684.8000, -63.695
 685.0000, -64.006
 685.2000, -63.702
 685.4000, -64.048
 685.6000, -63.680
 685.8000, -63.832
 686.0000, -63.816
 686.2000, -63.349
 686.4000, -63.711
 686.6000, -63.637
 686.8000, -64.113
 687.0000, -63.710
 687.2000, -63.839
 687.4000, -63.908
 687.6000, -63.758
 687.8000, -63.950
 688.0000, -63.748
 688.2000, -64.004
 688.4000, -63.808
 688.6000, -63.725
 688.8000, -63.870
 689.0000, -63.821
 689.2000, -63.835
 689.4000, -64.239
 689.6000, -63.607
 689.8000, -64.000
 690.0000, -64.180
 690.2000, -63.853
 690.4000, -64.066
 690.6000, -63.987
 690.8000, -63.995
 691.0000, -64.031
 691.2000, -64.035
 691.4000, -64.398
 691.6000, -64.501
 691.8000, -63.749
 692.0000, -63.978
 692.2000, -63.728
 692.4000, -64.259
 692.6000, -64.057
 692.8000, -64.039
 693.0000, -63.889
 693.2000, -63.764
 693.4000, -64.121
 693.6000, -63.810
 693.8000, -64.060
 694.0000, -63.854
 694.2000, -64.345
 694.4000, -64.143
 694.6000, -63.866
 694.8000, -64.339
 695.0000, -64.133
 695.2000, -63.959
 695.4000, -64.079
 695.6000, -64.020
 695.8000, -64.245
 696.0000, -63.961
 696.2000, -63.912
 696.4000, -64.481
 696.6000, -64.322
 696.8000, -64.279
 697.0000, -64.479
 697.2000, -64.202
 697.4000, -64.052
 697.6000, -64.419
 697.8000, -64.191
 698.0000, -64.527
 698.2000, -64.366
 698.4000, -63.879
 698.6000, -64.391
 698.8000, -64.438
 699.0000, -64.401
 699.2000, -64.482
 699.4000, -64.310
 699.6000, -64.578
 699.8000, -64.183
 700.0000, -64.261
 700.2000, -64.333
 700.4000, -64.405
 700.6000, -64.227
 700.8000, -64.397
 701.0000, -64.603
 701.2000, -64.784
 701.4000, -64.630
 701.6000, -64.748
 701.8000, -64.407
 702.0000, -64.456
 702.2000, -64.831
 702.4000, -64.469
 702.6000, -64.120
 702.8000, -64.365
 703.0000, -64.455
 703.2000, -64.266
 703.4000, -64.484
 703.6000, -64.603
 703.8000, -64.589
 704.0000, -64.477
 704.2000, -64.516
 704.4000, -64.285
 704.6000, -64.677
 704.8000, -64.548
 705.0000, -64.639
 705.2000, -64.413
 705.4000, -64.537
 705.6000, -64.822
 705.8000, -64.583
 706.0000, -64.955
 706.2000, -64.295
 706.4000, -64.631
 706.6000, -65.021
 706.8000, -64.785
 707.0000, -64.727
 707.2000, -64.298
 707.4000, -64.682
 707.6000, -64.907
 707.8000, -64.741
 708.0000, -64.747
 708.2000, -64.708
 708.4000, -64.814
 708.6000, -64.581
 708.8000, -64.645
 709.0000, -64.651
 709.2000, -65.045
 709.4000, -64.649
 709.6000, -65.081
 709.8000, -64.713
 710.0000, -64.905
 710.2000, -64.769
 710.4000, -64.938
 710.6000, -64.747
 710.8000, -64.941
 711.0000, -64.699
 711.2000, -64.936
 711.4000, -64.769
 711.6000, -64.802
 711.8000, -64.701
 712.0000, -64.523
 712.2000, -64.876
 712.4000, -64.756
 712.6000, -64.696
 712.8000, -64.712
 713.0000, -64.753
 713.2000, -65.079
 713.4000, -64.556
 713.6000, -65.114
 713.8000, -64.969
 714.0000, -64.832
 714.2000, -65.030
 714.4000, -65.086
 714.6000, -64.881
 714.8000, -65.355
 715.0000, -65.054
 715.2000, -65.017
 715.4000, -64.680
 715.6000, -64.944
 715.8000, -65.110
 716.0000, -64.946
 716.2000, -65.141
 716.4000, -64.845
 716.6000, -64.996
 716.8000, -64.787
 717.0000, -65.180
 717.2000, -65.264
 717.4000, -64.959
 717.6000, -64.931
 717.8000, -64.978
 718.0000, -65.190
 718.2000, -64.924
 718.4000, -65.131
 718.6000, -65.175
 718.8000, -65.307
 719.0000, -65.291
 719.2000, -64.732
 719.4000, -65.251
 719.6000, -65.054
 719.8000, -64.959
 720.0000, -64.990
 720.2000, -64.935
 720.4000, -65.120
 720.6000, -65.491
 720.8000, -65.098
 721.0000, -65.120
 721.2000, -65.192
 721.4000, -65.248
 721.6000, -65.086
 721.8000, -65.224
 722.0000, -65.103
 722.2000, -65.334
 722.4000, -65.151
 722.6000, -65.378
 722.8000, -65.254
 723.0000, -65.370
 723.2000, -65.360
 723.4000, -64.828
 723.6000, -65.300
 723.8000, -64.873
 724.0000, -65.664
 724.2000, -65.316
 724.4000, -65.090
 724.6000, -65.079
 724.8000, -65.401
 725.0000, -65.316
 725.2000, -65.314
 725.4000, -65.428
 725.6000, -65.185
 725.8000, -65.307
 726.0000, -65.169
 726.2000, -65.091
 726.4000, -64.832
 726.6000, -65.145
 726.8000, -65.154
 727.0000, -65.049
 727.2000, -65.223
 727.4000, -65.261
 727.6000, -65.282
 727.8000, -65.065
 728.0000, -65.653
 728.2000, -65.720
 728.4000, -65.338
 728.6000, -65.082
 728.8000, -65.022
 729.0000, -65.399
 729.2000, -65.363
 729.4000, -65.271
 729.6000, -65.716
 729.8000, -65.346
 730.0000, -65.440
 730.2000, -65.331
 730.4000, -65.210
 730.6000, -65.499
 730.8000, -65.886
 731.0000, -65.230
 731.2000, -65.643
 731.4000, -65.338
 731.6000, -65.190
 731.8000, -65.315
 732.0000, -65.733
 732.2000, -65.486
 732.4000, -65.471
 732.6000, -65.431
 732.8000, -65.556
 733.0000, -65.424
 733.2000, -65.720
 733.4000, -65.493
 733.6000, -64.949
 733.8000, -65.568
 734.0000, -65.420
 734.2000, -65.666
 734.4000, -65.575
 734.6000, -65.114
 734.8000, -65.102
 735.0000, -65.239
 735.2000, -65.495
 735.4000, -65.659
 735.6000, -65.613
 735.8000, -66.017
 736.0000, -65.850
 736.2000, -65.125
 736.4000, -65.540
 736.6000, -65.376
 736.8000, -65.289
 737.0000, -65.231
 737.2000, -65.436
 737.4000, -65.337
 737.6000, -65.664
 737.8000, -65.194
 738.0000, -65.725
 738.2000, -65.831
 738.4000, -65.783
 738.6000, -65.528
 738.8000, -65.521
 739.0000, -65.601
 739.2000, -65.523
 739.4000, -65.615
 739.6000, -65.408
 739.8000, -65.889
 740.0000, -65.596
 740.2000, -65.843
 740.4000, -65.596
 740.6000, -65.804
 740.8000, -65.846
 741.0000, -65.707
 741.2000, -65.825
 741.4000, -65.787
 741.6000, -65.298
 741.8000, -65.703
 742.0000, -65.529
 742.2000, -65.865
 742.4000, -65.756
 742.6000, -66.176
 742.8000, -65.554
 743.0000, -65.822
 743.2000, -65.801
 743.4000, -65.691
 743.6000, -65.721
 743.8000, -65.558
 744.0000, -65.806
 744.2000, -65.677
 744.4000, -65.764
 744.6000, -65.344
 744.8000, -65.823
 745.0000, -65.929
 745.2000, -65.955
 745.4000, -65.619
 745.6000, -65.771
 745.8000, -65.980
 746.0000, -65.773
 746.2000, -65.628
 746.4000, -65.567
 746.6000, -66.117
 746.8000, -65.571
 747.0000, -65.921
 747.2000, -65.515
 747.4000, -65.534
 747.6000, -65.749
 747.8000, -66.005
 748.0000, -65.314
 748.2000, -65.844
 748.4000, -66.056
 748.6000, -66.047
 748.8000, -66.131
 749.0000, -65.692
 749.2000, -65.977
 749.4000, -65.806
 749.6000, -66.105
 749.8000, -65.741
 750.0000, -66.121
 750.2000, -65.817
 750.4000, -65.954
 750.6000, -65.876
 750.8000, -65.993
 751.0000, -65.800
 751.2000, -65.975
 751.4000, -65.939
 751.6000, -65.691
 751.8000, -66.090
 752.0000, -65.793
 752.2000, -65.761
 752.4000, -66.185
 752.6000, -66.078
 752.8000, -66.010
 753.0000, -66.108
 753.2000, -66.525
 753.4000, -65.812
 753.6000, -66.479
 753.8000, -65.942
 754.0000, -65.903
 754.2000, -66.104
 754.4000, -66.395
 754.6000, -66.269
 754.8000, -66.187
 755.0000, -66.858
 755.2000, -66.065
 755.4000, -66.089
 755.6000, -65.772
 755.8000, -66.315
 756.0000, -66.468
 756.2000, -66.023
 756.4000, -65.887
 756.6000, -66.117
 756.8000, -66.302
 757.0000, -66.118
 757.2000, -66.398
 757.4000, -65.928
 757.6000, -66.525
 757.8000, -66.403
 758.0000, -66.206
 758.2000, -66.216
 758.4000, -66.549
 758.6000, -66.022
 758.8000, -66.107
 759.0000, -66.175
 759.2000, -66.300
 759.4000, -66.238
 759.6000, -66.259
 759.8000, -66.439
 760.0000, -66.270
 760.2000, -66.361
 760.4000, -66.597
 760.6000, -66.602
 760.8000, -66.284
 761.0000, -66.340
 761.2000, -66.626
 761.4000, -66.680
 761.6000, -66.403
 761.8000, -66.493
 762.0000, -66.663
 762.2000, -66.507
 762.4000, -67.252
 762.6000, -66.396
 762.8000, -66.356
 763.0000, -66.044
 763.2000, -66.547
 763.4000, -66.632
 763.6000, -66.297
 763.8000, -66.848
 764.0000, -66.231
 764.2000, -67.020
 764.4000, -67.093
 764.6000, -66.933
 764.8000, -66.646
 765.0000, -65.973
 765.2000, -66.843
 765.4000, -66.820
 765.6000, -66.709
 765.8000, -66.622
 766.0000, -66.770
 766.2000, -66.337
 766.4000, -66.934
 766.6000, -67.037
 766.8000, -66.978
 767.0000, -66.719
 767.2000, -66.712
 767.4000, -66.537
 767.6000, -66.797
 767.8000, -66.965
 768.0000, -67.045
 768.2000, -66.547
 768.4000, -67.025
 768.6000, -67.098
 768.8000, -66.277
 769.0000, -66.770
 769.2000, -66.719
 769.4000, -66.895
 769.6000, -67.058
 769.8000, -66.629
 770.0000, -66.935
 770.2000, -67.185
 770.4000, -66.964
 770.6000, -67.077
 770.8000, -66.658
 771.0000, -66.665
 771.2000, -67.062
 771.4000, -67.000
 771.6000, -66.904
 771.8000, -67.129
 772.0000, -67.117
 772.2000, -67.089
 772.4000, -66.896
 772.6000, -67.381
 772.8000, -67.392
 773.0000, -66.917
 773.2000, -66.642
 773.4000, -66.954
 773.6000, -67.555
 773.8000, -66.836
 774.0000, -67.109
 774.2000, -66.598
 774.4000, -67.404
 774.6000, -66.953
 774.8000, -67.054
 775.0000, -67.111
 775.2000, -67.148
 775.4000, -67.267
 775.6000, -67.096
 775.8000, -67.122
 776.0000, -67.319
 776.2000, -67.939
 776.4000, -66.908
 776.6000, -67.292
 776.8000, -67.161
 777.0000, -67.359
 777.2000, -67.117
 777.4000, -66.971
 777.6000, -67.393
 777.8000, -67.264
 778.0000, -67.115
 778.2000, -67.193
 778.4000, -67.446
 778.6000, -66.864
 778.8000, -67.244
 779.0000, -67.455
 779.2000, -67.295
 779.4000, -67.520
 779.6000, -67.155
 779.8000, -67.431
 780.0000, -67.195
 780.2000, -67.273
 780.4000, -66.903
 780.6000, -67.556
 780.8000, -67.656
 781.0000, -67.313
 781.2000, -67.887
 781.4000, -67.562
 781.6000, -67.277
 781.8000, -66.748
 782.0000, -67.494
 782.2000, -67.036
 782.4000, -67.648
 782.6000, -67.814
 782.8000, -67.307
 783.0000, -67.153
 783.2000, -66.848
 783.4000, -66.778
 783.6000, -67.643
 783.8000, -67.697
 784.0000, -67.346
 784.2000, -67.870
 784.4000, -67.384
 784.6000, -67.683
 784.8000, -67.092
 785.0000, -67.799
 785.2000, -67.534
 785.4000, -67.528
 785.6000, -67.133
 785.8000, -67.157
 786.0000, -67.958
 786.2000, -67.695
 786.4000, -67.870
 786.6000, -67.383
 786.8000, -67.473
 787.0000, -67.562
 787.2000, -67.412
 787.4000, -67.400
 787.6000, -68.113
 787.8000, -67.573
 788.0000, -67.339
 788.2000, -67.610
 788.4000, -67.711
 788.6000, -67.433
 788.8000, -67.460
 789.0000, -66.998
 789.2000, -68.062
 789.4000, -67.555
 789.6000, -67.753
 789.8000, -67.963
 790.0000, -67.285
 790.2000, -68.148
 790.4000, -67.338
 790.6000, -67.963
 790.8000, -66.908
 791.0000, -67.591
 791.2000, -68.317
 791.4000, -68.558
 791.6000, -67.606
 791.8000, -67.710
 792.0000, -67.352
 792.2000, -67.668
 792.4000, -68.049
 792.6000, -67.127
 792.8000, -67.443
 793.0000, -67.558
 793.2000, -67.359
 793.4000, -67.578
 793.6000, -67.723
 793.8000, -67.810
 794.0000, -67.839
 794.2000, -67.913
 794.4000, -68.264
 794.6000, -68.142
 794.8000, -67.393
 795.0000, -67.632
 795.2000, -68.061
 795.4000, -67.770
 795.6000, -67.533
 795.8000, -67.842
 796.0000, -67.753
 796.2000, -67.408
 796.4000, -67.498
 796.6000, -67.489
 796.8000, -68.006
 797.0000, -67.604
 797.2000, -68.231
 797.4000, -68.176
 797.6000, -67.501
 797.8000, -68.147
 798.0000, -68.185
 798.2000, -68.097
 798.4000, -67.592
 798.6000, -67.437
 798.8000, -67.552
 799.0000, -67.709
 799.2000, -67.182
 799.4000, -67.926
 799.6000, -67.101
 799.8000, -67.968
 800.0000, -68.008
 800.2000, -67.771
 800.4000, -68.036
 800.6000, -68.161
 800.8000, -68.130
 801.0000, -67.461
 801.2000, -67.797
 801.4000, -68.260
 801.6000, -67.953
 801.8000, -67.333
 802.0000, -68.443
 802.2000, -67.609
 802.4000, -67.734
 802.6000, -68.034
 802.8000, -67.687
 803.0000, -68.023
 803.2000, -67.188
 803.4000, -67.704
 803.6000, -67.706
 803.8000, -68.194
 804.0000, -68.459
 804.2000, -68.614
 804.4000, -67.795
 804.6000, -67.695
 804.8000, -67.881
 805.0000, -67.879
 805.2000, -67.388
 805.4000, -67.901
 805.6000, -67.999
 805.8000, -68.309
 806.0000, -67.515
 806.2000, -68.435
 806.4000, -67.936
 806.6000, -68.429
 806.8000, -67.852
 807.0000, -67.923
 807.2000, -67.542
 807.4000, -68.228
 807.6000, -67.511
 807.8000, -67.656
 808.0000, -67.362
 808.2000, -67.588
 808.4000, -67.706
 808.6000, -68.060
 808.8000, -67.649
 809.0000, -67.694
 809.2000, -68.269
 809.4000, -67.992
 809.6000, -67.808
 809.8000, -68.162
 810.0000, -67.658
 810.2000, -68.047
 810.4000, -68.241
 810.6000, -68.965
 810.8000, -68.278
 811.0000, -68.006
 811.2000, -68.391
 811.4000, -68.320
 811.6000, -68.210
 811.8000, -68.575
 812.0000, -68.519
 812.2000, -67.972
 812.4000, -67.971
 812.6000, -67.910
 812.8000, -68.432
 813.0000, -67.796
 813.2000, -68.696
 813.4000, -67.707
 813.6000, -67.652
 813.8000, -68.513
 814.0000, -68.157
 814.2000, -68.331
 814.4000, -68.489
 814.6000, -67.490
 814.8000, -68.090
 815.0000, -68.420
 815.2000, -68.132
 815.4000, -67.796
 815.6000, -68.018
 815.8000, -67.793
 816.0000, -67.576
 816.2000, -68.740
 816.4000, -67.786
 816.6000, -67.647
 816.8000, -67.988
 817.0000, -69.070
 817.2000, -67.936
 817.4000, -67.449
 817.6000, -68.694
 817.8000, -68.179
 818.0000, -68.440
 818.2000, -67.955
 818.4000, -68.462
 818.6000, -68.471
 818.8000, -68.696
 819.0000, -67.987
 819.2000, -67.995
 819.4000, -67.299
 819.6000, -67.982
 819.8000, -67.670
 820.0000, -67.924
 820.2000, -68.086
 820.4000, -68.000
 820.6000, -68.569
 820.8000, -67.826
 821.0000, -68.312
 821.2000, -68.096
 821.4000, -67.903
 821.6000, -68.003
 821.8000, -68.651
 822.0000, -67.933
 822.2000, -68.615
 822.4000, -68.128
 822.6000, -68.844
 822.8000, -68.002
 823.0000, -68.381
 823.2000, -67.894
 823.4000, -68.785
 823.6000, -68.224
 823.8000, -68.138
 824.0000, -68.623
 824.2000, -68.102
 824.4000, -68.085
 824.6000, -68.876
 824.8000, -68.083
 825.0000, -68.062
 825.2000, -68.071
 825.4000, -67.894
 825.6000, -67.935
 825.8000, -68.239
 826.0000, -67.715
 826.2000, -67.988
 826.4000, -68.077
 826.6000, -68.393
 826.8000, -68.432
 827.0000, -68.258
 827.2000, -68.416
 827.4000, -68.389
 827.6000, -68.048
 827.8000, -68.177
 828.0000, -68.441
 828.2000, -68.160
 828.4000, -68.641
 828.6000, -68.199
 828.8000, -68.094
 829.0000, -68.236
 829.2000, -67.912
 829.4000, -67.068
 829.6000, -67.776
 829.8000, -68.151
 830.0000, -67.489
 830.2000, -67.784
 830.4000, -67.868
 830.6000, -69.003
 830.8000, -68.597
 831.0000, -68.216
 831.2000, -67.992
 831.4000, -69.188
 831.6000, -68.085
 831.8000, -68.400
 832.0000, -67.989
 832.2000, -68.093
 832.4000, -68.279
 832.6000, -69.044
 832.8000, -68.118
 833.0000, -68.097
 833.2000, -67.777
 833.4000, -67.973
 833.6000, -68.498
 833.8000, -68.234
 834.0000, -68.275
 834.2000, -68.431
 834.4000, -68.425
 834.6000, -67.312
 834.8000, -68.269
 835.0000, -68.271
 835.2000, -68.705
 835.4000, -68.146
 835.6000, -68.663
 835.8000, -68.000
 836.0000, -68.376
 836.2000, -68.141
 836.4000, -67.978
 836.6000, -68.510
 836.8000, -68.085
 837.0000, -68.220
 837.2000, -68.370
 837.4000, -67.863
 837.6000, -68.332
 837.8000, -68.497
 838.0000, -68.366
 838.2000, -68.272
 838.4000, -68.866
 838.6000, -68.426
 838.8000, -68.072
 839.0000, -67.723
 839.2000, -69.040
 839.4000, -68.297
 839.6000, -68.785
 839.8000, -68.848
 840.0000, -68.895
 840.2000, -68.715
 840.4000, -68.686
 840.6000, -68.318
 840.8000, -68.314
 841.0000, -68.292
 841.2000, -69.145
 841.4000, -68.473
 841.6000, -68.470
 841.8000, -68.461
 842.0000, -68.776
 842.2000, -68.675
 842.4000, -68.797
 842.6000, -68.373
 842.8000, -68.655
 843.0000, -69.419
 843.2000, -67.689
 843.4000, -68.334
 843.6000, -68.227
 843.8000, -68.792
 844.0000, -68.973
 844.2000, -68.363
 844.4000, -68.528
 844.6000, -68.882
 844.8000, -68.221
 845.0000, -68.589
 845.2000, -69.107
 845.4000, -68.275
 845.6000, -68.985
 845.8000, -67.730
 846.0000, -68.501
 846.2000, -68.373
 846.4000, -68.587
 846.6000, -68.267
 846.8000, -68.661
 847.0000, -68.260
 847.2000, -68.631
 847.4000, -68.320
 847.6000, -69.064
 847.8000, -68.468
 848.0000, -68.992
 848.2000, -68.656
 848.4000, -68.662
 848.6000, -68.736
 848.8000, -68.515
 849.0000, -68.251
 849.2000, -68.585
 849.4000, -68.846
 849.6000, -68.879
 849.8000, -68.267
 850.0000, -68.652
 850.2000, -68.050
 850.4000, -68.277
 850.6000, -68.552
 850.8000, -68.440
 851.0000, -68.859
 851.2000, -68.380
 851.4000, -68.691
 851.6000, -68.308
 851.8000, -68.922
 852.0000, -68.408
 852.2000, -68.334
 852.4000, -68.798
 852.6000, -68.359
 852.8000, -68.436
 853.0000, -67.790
 853.2000, -68.129
 853.4000, -68.412
 853.6000, -68.798
 853.8000, -68.516
 854.0000, -68.641
 854.2000, -68.526
 854.4000, -68.899
 854.6000, -68.635
 854.8000, -68.161
 855.0000, -68.653
 855.2000, -68.215
 855.4000, -68.681
 855.6000, -68.330
 855.8000, -68.583
 856.0000, -68.569
 856.2000, -68.419
 856.4000, -68.925
 856.6000, -68.732
 856.8000, -68.394
 857.0000, -67.772
 857.2000, -68.747
 857.4000, -69.148
 857.6000, -68.687
 857.8000, -68.571
 858.0000, -68.631
 858.2000, -69.249
 858.4000, -68.686
 858.6000, -68.723
 858.8000, -68.852
 859.0000, -69.165
 859.2000, -68.455
 859.4000, -68.964
 859.6000, -68.635
 859.8000, -68.571
 860.0000, -68.572
 860.2000, -68.580
 860.4000, -68.505
 860.6000, -68.897
 860.8000, -68.913
 861.0000, -68.902
 861.2000, -68.225
 861.4000, -68.483
 861.6000, -68.567
 861.8000, -68.519
 862.0000, -68.579
 862.2000, -68.299
 862.4000, -68.589
 862.6000, -69.114
 862.8000, -68.526
 863.0000, -68.710
 863.2000, -69.251
 863.4000, -68.625
 863.6000, -68.457
 863.8000, -68.390
 864.0000, -68.725
 864.2000, -68.528
 864.4000, -69.014
 864.6000, -68.713
 864.8000, -68.556
 865.0000, -68.658
 865.2000, -68.871
 865.4000, -68.359
 865.6000, -68.271
 865.8000, -68.432
 866.0000, -68.605
 866.2000, -68.195
 866.4000, -68.411
 866.6000, -68.787
 866.8000, -69.466
 867.0000, -68.431
 867.2000, -68.141
 867.4000, -68.287
 867.6000, -68.660
 867.8000, -68.826
 868.0000, -68.500
 868.2000, -68.812
 868.4000, -68.451
 868.6000, -68.976
 868.8000, -68.775
 869.0000, -68.169
 869.2000, -68.873
 869.4000, -68.806
 869.6000, -67.852
 869.8000, -68.910
 870.0000, -68.573
 870.2000, -68.259
 870.4000, -69.064
 870.6000, -68.149
 870.8000, -69.233
 871.0000, -68.326
 871.2000, -68.982
 871.4000, -68.861
 871.6000, -68.203
 871.8000, -68.417
 872.0000, -68.286
 872.2000, -68.139
 872.4000, -68.604
 872.6000, -68.457
 872.8000, -68.413
 873.0000, -68.768
 873.2000, -68.837
 873.4000, -68.684
 873.6000, -68.685
 873.8000, -68.503
 874.0000, -68.405
 874.2000, -68.165
 874.4000, -69.051
 874.6000, -68.548
 874.8000, -68.148
 875.0000, -68.196
 875.2000, -68.362
 875.4000, -68.424
 875.6000, -68.429
 875.8000, -68.438
 876.0000, -68.366
 876.2000, -68.166
 876.4000, -68.932
 876.6000, -68.688
 876.8000, -68.587
 877.0000, -68.477
 877.2000, -68.308
 877.4000, -68.166
 877.6000, -68.402
 877.8000, -68.498
 878.0000, -68.592
 878.2000, -68.353
 878.4000, -67.811
 878.6000, -68.586
 878.8000, -68.404
 879.0000, -68.628
 879.2000, -68.009
 879.4000, -67.879
 879.6000, -68.763
 879.8000, -68.208
 880.0000, -68.470
 880.2000, -68.341
 880.4000, -68.569
 880.6000, -68.296
 880.8000, -68.376
 881.0000, -68.475
 881.2000, -68.541
 881.4000, -68.422
 881.6000, -68.334
 881.8000, -68.369
 882.0000, -68.451
 882.2000, -68.435
 882.4000, -68.007
 882.6000, -68.164
 882.8000, -68.371
 883.0000, -67.922
 883.2000, -68.308
 883.4000, -68.326
 883.6000, -68.081
 883.8000, -68.559
 884.0000, -68.665
 884.2000, -68.176
 884.4000, -68.633
 884.6000, -67.955
 884.8000, -68.047
 885.0000, -68.219
 885.2000, -68.228
 885.4000, -68.320
 885.6000, -68.361
 885.8000, -68.374
 886.0000, -68.425
 886.2000, -68.016
 886.4000, -68.078
 886.6000, -67.652
 886.8000, -67.918
 887.0000, -68.285
 887.2000, -68.166
 887.4000, -68.522
 887.6000, -68.295
 887.8000, -68.309
 888.0000, -68.492
 888.2000, -68.252
 888.4000, -68.111
 888.6000, -68.056
 888.8000, -68.406
 889.0000, -68.042
 889.2000, -67.908
 889.4000, -67.958
 889.6000, -68.257
 889.8000, -68.098
 890.0000, -68.255
 890.2000, -68.054
 890.4000, -68.098
 890.6000, -67.969
 890.8000, -67.704
 891.0000, -68.272
 891.2000, -68.328
 891.4000, -68.096
 891.6000, -68.220
 891.8000, -67.947
 892.0000, -68.018
 892.2000, -68.402
 892.4000, -67.771
 892.6000, -68.084
 892.8000, -68.554
 893.0000, -68.604
 893.2000, -68.166
 893.4000, -67.981
 893.6000, -68.186
 893.8000, -67.784
 894.0000, -67.925
 894.2000, -67.873
 894.4000, -68.153
 894.6000, -67.556
 894.8000, -67.949
 895.0000, -67.816
 895.2000, -67.799
 895.4000, -68.145
 895.6000, -67.575
 895.8000, -68.035
 896.0000, -67.533
 896.2000, -67.780
 896.4000, -68.122
 896.6000, -68.142
 896.8000, -67.501
 897.0000, -67.979
 897.2000, -67.749
 897.4000, -67.817
 897.6000, -67.821
 897.8000, -67.750
 898.0000, -67.979
 898.2000, -68.244
 898.4000, -67.745
 898.6000, -67.894
 898.8000, -67.796
 899.0000, -68.043
 899.2000, -67.703
 899.4000, -67.866
 899.6000, -67.831
 899.8000, -67.563
 900.0000, -67.836
 900.2000, -67.555
 900.4000, -67.471
 900.6000, -69.095
 900.8000, -68.883
 901.0000, -67.538
 901.2000, -67.403
 901.4000, -67.675
 901.6000, -67.539
 901.8000, -67.515
 902.0000, -68.078
 902.2000, -67.498
 902.4000, -68.276
 902.6000, -68.204
 902.8000, -68.262
 903.0000, -67.925
 903.2000, -67.188
 903.4000, -67.385
 903.6000, -67.324
 903.8000, -68.106
 904.0000, -67.523
 904.2000, -67.645
 904.4000, -67.848
 904.6000, -67.510
 904.8000, -67.713
 905.0000, -68.087
 905.2000, -67.925
 905.4000, -68.064
 905.6000, -68.028
 905.8000, -67.222
 906.0000, -67.397
 906.2000, -67.225
 906.4000, -67.892
 906.6000, -67.953
 906.8000, -67.253
 907.0000, -67.605
 907.2000, -67.522
 907.4000, -68.288
 907.6000, -67.479
 907.8000, -68.116
 908.0000, -67.480
 908.2000, -67.511
 908.4000, -67.608
 908.6000, -67.147
 908.8000, -67.823
 909.0000, -67.505
 909.2000, -67.923
 909.4000, -67.499
 909.6000, -67.327
 909.8000, -67.165
 910.0000, -67.608
 910.2000, -67.144
 910.4000, -67.957
 910.6000, -68.439
 910.8000, -67.845
 911.0000, -67.731
 911.2000, -67.920
 911.4000, -67.332
 911.6000, -68.088
 911.8000, -67.868
 912.0000, -67.603
 912.2000, -67.751
 912.4000, -67.020
 912.6000, -68.077
 912.8000, -67.342
 913.0000, -67.236
 913.2000, -67.698
 913.4000, -67.163
 913.6000, -67.437
 913.8000, -67.418
 914.0000, -67.808
 914.2000, -67.580
 914.4000, -67.701
 914.6000, -67.345
 914.8000, -67.548
 915.0000, -67.102
 915.2000, -67.184
 915.4000, -67.948
 915.6000, -67.133
 915.8000, -67.148
 916.0000, -67.666
 916.2000, -66.892
 916.4000, -67.031
 916.6000, -67.607
 916.8000, -67.435
 917.0000, -67.822
 917.2000, -67.365
 917.4000, -67.504
 917.6000, -67.152
 917.8000, -67.324
 918.0000, -67.149
 918.2000, -67.606
 918.4000, -67.153
 918.6000, -67.368
 918.8000, -67.377
 919.0000, -67.260
 919.2000, -67.456
 919.4000, -67.495
 919.6000, -67.324
 919.8000, -68.040
 920.0000, -67.290
 920.2000, -67.586
 920.4000, -67.285
 920.6000, -66.965
 920.8000, -67.327
 921.0000, -67.222
 921.2000, -67.123
 921.4000, -66.970
 921.6000, -67.513
 921.8000, -67.162
 922.0000, -67.185
 922.2000, -67.586
 922.4000, -67.488
 922.6000, -67.359
 922.8000, -67.021
 923.0000, -67.380
 923.2000, -66.947
 923.4000, -67.207
 923.6000, -66.849
 923.8000, -66.949
 924.0000, -67.118
 924.2000, -67.222
 924.4000, -67.132
 924.6000, -67.439
 924.8000, -67.009
 925.0000, -66.994
 925.2000, -66.970
 925.4000, -67.074
 925.6000, -67.568
 925.8000, -67.066
 926.0000, -67.035
 926.2000, -67.295
 926.4000, -67.350
 926.6000, -66.907
 926.8000, -66.944
 927.0000, -67.315
 927.2000, -67.056
 927.4000, -67.228
 927.6000, -67.428
 927.8000, -67.206
 928.0000, -66.740
 928.2000, -67.061
 928.4000, -67.290
 928.6000, -66.960
 928.8000, -66.759
 929.0000, -67.087
 929.2000, -66.997
 929.4000, -66.792
 929.6000, -66.933
 929.8000, -66.974
 930.0000, -66.668
 930.2000, -66.979
 930.4000, -67.025
 930.6000, -67.517
 930.8000, -67.177
 931.0000, -67.113
 931.2000, -67.285
 931.4000, -67.238
 931.6000, -67.179
 931.8000, -66.764
 932.0000, -66.820
 932.2000, -67.178
 932.4000, -67.362
 932.6000, -66.645
 932.8000, -67.198
 933.0000, -67.113
 933.2000, -67.208
 933.4000, -66.928
 933.6000, -67.041
 933.8000, -67.311
 934.0000, -66.898
 934.2000, -67.012
 934.4000, -66.895
 934.6000, -67.073
 934.8000, -67.225
 935.0000, -67.403
 935.2000, -66.755
 935.4000, -67.008
 935.6000, -67.156
 935.8000, -67.256
 936.0000, -66.941
 936.2000, -67.165
 936.4000, -67.311
 936.6000, -67.313
 936.8000, -67.107
 937.0000, -66.975
 937.2000, -67.116
 937.4000, -67.274
 937.6000, -67.074
 937.8000, -67.054
 938.0000, -66.895
 938.2000, -67.140
 938.4000, -67.320
 938.6000, -67.121
 938.8000, -66.856
 939.0000, -67.042
 939.2000, -67.032
 939.4000, -67.549
 939.6000, -66.929
 939.8000, -66.937
 940.0000, -67.133
 940.2000, -67.140
 940.4000, -66.959
 940.6000, -67.089
 940.8000, -67.308
 941.0000, -67.464
 941.2000, -67.375
 941.4000, -67.003
 941.6000, -67.380
 941.8000, -67.139
 942.0000, -66.965
 942.2000, -67.172
 942.4000, -67.147
 942.6000, -67.372
 942.8000, -67.052
 943.0000, -67.315
 943.2000, -66.944
 943.4000, -67.139
 943.6000, -67.047
 943.8000, -66.957
 944.0000, -66.946
 944.2000, -67.090
 944.4000, -67.146
 944.6000, -66.997
 944.8000, -67.241
 945.0000, -67.031
 945.2000, -67.075
 945.4000, -67.236
 945.6000, -66.851
 945.8000, -67.379
 946.0000, -66.802
 946.2000, -66.832
 946.4000, -66.939
 946.6000, -67.093
 946.8000, -66.751
 947.0000, -66.865
 947.2000, -67.259
 947.4000, -67.131
 947.6000, -67.128
 947.8000, -66.994
 948.0000, -67.187
 948.2000, -67.052
 948.4000, -67.269
 948.6000, -67.204
 948.8000, -66.872
 949.0000, -67.141
 949.2000, -66.962
 949.4000, -67.004
 949.6000, -66.794
 949.8000, -67.273
 950.0000, -67.075
 950.2000, -67.162
 950.4000, -67.159
 950.6000, -67.002
 950.8000, -66.747
 951.0000, -66.994
 951.2000, -66.951
 951.4000, -66.781
 951.6000, -66.959
 951.8000, -66.713
 952.0000, -67.198
 952.2000, -66.598
 952.4000, -67.116
 952.6000, -67.059
 952.8000, -66.898
 953.0000, -67.227
 953.2000, -67.264
 953.4000, -67.046
 953.6000, -66.971
 953.8000, -67.379
 954.0000, -67.082
 954.2000, -67.074
 954.4000, -67.127
 954.6000, -67.382
 954.8000, -66.874
 955.0000, -67.332
 955.2000, -67.067
 955.4000, -66.911
 955.6000, -67.105
 955.8000, -67.166
 956.0000, -67.150
 956.2000, -67.143
 956.4000, -67.264
 956.6000, -67.270
 956.8000, -66.927
 957.0000, -67.432
 957.2000, -66.914
 957.4000, -66.968
 957.6000, -67.497
 957.8000, -67.035
 958.0000, -67.075
 958.2000, -67.442
 958.4000, -67.113
 958.6000, -66.998
 958.8000, -67.232
 959.0000, -67.412
 959.2000, -67.029
 959.4000, -67.393
 959.6000, -66.942
 959.8000, -67.082
 960.0000, -66.930
 960.2000, -67.326
 960.4000, -66.981
 960.6000, -67.115
 960.8000, -67.113
 961.0000, -67.330
 961.2000, -66.957
 961.4000, -67.163
 961.6000, -67.126
 961.8000, -67.051
 962.0000, -67.223
 962.2000, -67.194
 962.4000, -67.080
 962.6000, -67.102
 962.8000, -67.312
 963.0000, -66.941
 963.2000, -66.889
 963.4000, -67.123
 963.6000, -66.939
 963.8000, -66.912
 964.0000, -66.959
 964.2000, -66.895
 964.4000, -66.965
 964.6000, -66.869
 964.8000, -67.279
 965.0000, -67.519
 965.2000, -66.715
 965.4000, -66.938
 965.6000, -67.076
 965.8000, -67.072
 966.0000, -67.001
 966.2000, -67.039
 966.4000, -66.988
 966.6000, -67.050
 966.8000, -67.187
 967.0000, -66.976
 967.2000, -67.119
 967.4000, -66.884
 967.6000, -67.299
 967.8000, -67.027
 968.0000, -67.334
 968.2000, -67.331
 968.4000, -67.244
 968.6000, -67.023
 968.8000, -67.107
 969.0000, -66.987
 969.2000, -67.259
 969.4000, -67.397
 969.6000, -67.238
 969.8000, -67.040
 970.0000, -66.932
 970.2000, -67.237
 970.4000, -67.208
 970.6000, -67.123
 970.8000, -67.133
 971.0000, -67.253
 971.2000, -67.064
 971.4000, -67.271
 971.6000, -67.287
 971.8000, -67.023
 972.0000, -67.457
 972.2000, -67.296
 972.4000, -67.278
 972.6000, -67.311
 972.8000, -67.395
 973.0000, -67.526
 973.2000, -67.379
 973.4000, -67.316
 973.6000, -67.369
 973.8000, -67.385
 974.0000, -67.299
 974.2000, -67.528
 974.4000, -67.620
 974.6000, -67.622
 974.8000, -67.219
 975.0000, -67.559
 975.2000, -67.516
 975.4000, -67.513
 975.6000, -67.656
 975.8000, -67.728
 976.0000, -67.510
 976.2000, -67.986
 976.4000, -67.738
 976.6000, -67.623
 976.8000, -67.828
 977.0000, -67.731
 977.2000, -67.806
 977.4000, -68.019
 977.6000, -68.055
 977.8000, -67.903
 978.0000, -67.609
 978.2000, -67.617
 978.4000, -67.767
 978.6000, -67.842
 978.8000, -67.726
 979.0000, -68.075
 979.2000, -68.033
 979.4000, -67.877
 979.6000, -67.836
 979.8000, -67.968
 980.0000, -67.721
 980.2000, -68.047
 980.4000, -68.005
 980.6000, -67.792
 980.8000, -68.000
 981.0000, -67.936
 981.2000, -67.849
 981.4000, -67.705
 981.6000, -68.015
 981.8000, -67.852
 982.0000, -67.728
 982.2000, -67.778
 982.4000, -67.579
 982.6000, -67.775
 982.8000, -67.541
 983.0000, -67.969
 983.2000, -67.699
 983.4000, -68.001
 983.6000, -67.714
 983.8000, -67.487
 984.0000, -67.534
 984.2000, -67.596
 984.4000, -67.803
 984.6000, -67.610
 984.8000, -67.502
 985.0000, -67.324
 985.2000, -67.400
 985.4000, -67.463
 985.6000, -67.710
 985.8000, -67.561
 986.0000, -67.419
 986.2000, -67.411
 986.4000, -67.356
 986.6000, -67.377
 986.8000, -67.400
 987.0000, -67.369
 987.2000, -67.209
 987.4000, -67.502
 987.6000, -67.165
 987.8000, -67.087
 988.0000, -67.177
 988.2000, -67.476
 988.4000, -67.252
 988.6000, -67.284
 988.8000, -67.315
 989.0000, -67.434
 989.2000, -67.190
 989.4000, -67.016
 989.6000, -67.213
 989.8000, -67.158
 990.0000, -67.318
 990.2000, -67.301
 990.4000, -67.358
 990.6000, -67.157
 990.8000, -67.342
 991.0000, -66.949
 991.2000, -67.070
 991.4000, -67.256
 991.6000, -67.085
 991.8000, -67.014
 992.0000, -67.015
 992.2000, -67.163
 992.4000, -67.210
 992.6000, -67.212
 992.8000, -67.194
 993.0000, -66.822
 993.2000, -67.268
 993.4000, -67.210
 993.6000, -67.249
 993.8000, -67.023
 994.0000, -66.979
 994.2000, -67.372
 994.4000, -67.156
 994.6000, -67.038
 994.8000, -67.132
 995.0000, -67.055
 995.2000, -67.202
 995.4000, -67.144
 995.6000, -67.054
 995.8000, -67.161
 996.0000, -67.008
 996.2000, -67.487
 996.4000, -67.198
 996.6000, -67.470
 996.8000, -67.159
 997.0000, -67.370
 997.2000, -67.471
 997.4000, -67.149
 997.6000, -67.491
 997.8000, -67.301
 998.0000, -67.630
 998.2000, -67.426
 998.4000, -67.459
 998.6000, -67.572
 998.8000, -67.685
 999.0000, -67.555
 999.2000, -67.669
 999.4000, -67.353
 999.6000, -67.578
 999.8000, -67.715
1000.0000, -67.410
1000.2000, -67.464
1000.4000, -67.514
1000.6000, -67.681
1000.8000, -67.507
1001.0000, -67.594
1001.2000, -67.384
1001.4000, -67.405
1001.6000, -67.394
1001.8000, -67.324
1002.0000, -67.595
1002.2000, -67.434
1002.4000, -67.500
1002.6000, -67.105
1002.8000, -67.343
1003.0000, -67.370
1003.2000, -67.298
1003.4000, -67.235
1003.6000, -67.410
1003.8000, -67.447
1004.0000, -67.335
1004.2000, -67.525
1004.4000, -67.398
1004.6000, -67.375
1004.8000, -67.286
1005.0000, -67.261
1005.2000, -67.238
1005.4000, -67.386
1005.6000, -67.519
1005.8000, -67.304
1006.0000, -67.581
1006.2000, -67.360
1006.4000, -67.551
1006.6000, -67.686
1006.8000, -67.566
1007.0000, -67.633
1007.2000, -67.626
1007.4000, -67.959
1007.6000, -67.984
1007.8000, -67.864
1008.0000, -67.824
1008.2000, -67.676
1008.4000, -67.736
1008.6000, -67.931
1008.8000, -68.267
1009.0000, -68.406
1009.2000, -68.264
1009.4000, -68.267
1009.6000, -68.346
1009.8000, -68.323
1010.0000, -68.364
1010.2000, -68.499
1010.4000, -68.369
1010.6000, -68.523
1010.8000, -68.827
1011.0000, -68.672
1011.2000, -68.759
1011.4000, -68.716
1011.6000, -68.735
1011.8000, -68.377
1012.0000, -68.550
1012.2000, -68.314
1012.4000, -68.858
1012.6000, -68.627
1012.8000, -68.513
1013.0000, -68.480
1013.2000, -68.401
1013.4000, -68.403
1013.6000, -68.736
1013.8000, -68.441
1014.0000, -68.400
1014.2000, -68.257
1014.4000, -68.373
1014.6000, -68.219
1014.8000, -68.323
1015.0000, -68.385
1015.2000, -68.474
1015.4000, -68.244
1015.6000, -68.242
1015.8000, -67.837
1016.0000, -68.118
1016.2000, -68.067
1016.4000, -68.127
1016.6000, -68.091
1016.8000, -67.940
1017.0000, -68.001
1017.2000, -67.664
1017.4000, -67.665
1017.6000, -67.775
1017.8000, -67.766
1018.0000, -67.502
1018.2000, -67.503
1018.4000, -67.499
1018.6000, -67.467
1018.8000, -67.526
1019.0000, -67.288
1019.2000, -67.356
1019.4000, -67.016
1019.6000, -67.083
1019.8000, -67.369
1020.0000, -67.107
1020.2000, -67.080
1020.4000, -67.093
1020.6000, -67.005
1020.8000, -67.020
1021.0000, -66.890
1021.2000, -67.140
1021.4000, -66.808
1021.6000, -66.592
1021.8000, -66.653
1022.0000, -66.755
1022.2000, -66.736
1022.4000, -66.562
1022.6000, -66.659
1022.8000, -66.525
1023.0000, -66.430
1023.2000, -66.180
1023.4000, -66.241
1023.6000, -66.303
1023.8000, -66.284
1024.0000, -66.238
1024.2000, -66.234
1024.4000, -66.187
1024.6000, -66.146
1024.8000, -65.923
1025.0000, -65.946
1025.2000, -66.082
1025.4000, -65.821
1025.6000, -65.978
1025.8000, -65.722
1026.0000, -65.703
1026.2000, -65.647
1026.4000, -65.556
1026.6000, -65.658
1026.8000, -65.584
1027.0000, -65.508
1027.2000, -65.377
1027.4000, -65.353
1027.6000, -65.471
1027.8000, -65.399
1028.0000, -65.200
1028.2000, -65.111
1028.4000, -65.136
1028.6000, -64.849
1028.8000, -64.988
1029.0000, -64.869
1029.2000, -64.979
1029.4000, -64.835
1029.6000, -64.754
1029.8000, -64.728
1030.0000, -64.617
1030.2000, -64.804
1030.4000, -64.853
1030.6000, -64.714
1030.8000, -64.743
1031.0000, -64.815
1031.2000, -64.758
1031.4000, -64.601
1031.6000, -64.686
1031.8000, -64.556
1032.0000, -64.574
1032.2000, -64.531
1032.4000, -64.599
1032.6000, -64.427
1032.8000, -64.579
1033.0000, -64.305
1033.2000, -64.201
1033.4000, -64.429
1033.6000, -64.331
1033.8000, -64.096
1034.0000, -63.938
1034.2000, -64.367
1034.4000, -64.097
1034.6000, -64.243
1034.8000, -63.912
1035.0000, -63.909
1035.2000, -63.968
1035.4000, -64.129
1035.6000, -63.947
1035.8000, -63.938
1036.0000, -63.999
1036.2000, -63.857
1036.4000, -63.868
1036.6000, -63.789
1036.8000, -64.007
1037.0000, -63.679
1037.2000, -63.742
1037.4000, -63.719
1037.6000, -63.781
1037.8000, -63.832
1038.0000, -63.877
1038.2000, -63.886
1038.4000, -63.835
1038.6000, -63.902
1038.8000, -63.873
1039.0000, -63.734
1039.2000, -63.951
1039.4000, -64.089
1039.6000, -63.995
1039.8000, -63.983
1040.0000, -64.091
1040.2000, -63.988
1040.4000, -63.915
1040.6000, -64.116
1040.8000, -64.056
1041.0000, -64.203
1041.2000, -64.130
1041.4000, -64.258
1041.6000, -64.193
1041.8000, -64.130
1042.0000, -64.161
1042.2000, -64.172
1042.4000, -64.116
1042.6000, -64.150
1042.8000, -64.282
1043.0000, -64.386
1043.2000, -64.142
1043.4000, -64.131
1043.6000, -64.155
1043.8000, -64.231
1044.0000, -64.286
1044.2000, -64.201
1044.4000, -64.154
1044.6000, -64.222
1044.8000, -64.081
1045.0000, -64.199
1045.2000, -63.961
1045.4000, -64.190
1045.6000, -64.074
1045.8000, -64.124
1046.0000, -63.858
1046.2000, -64.000
1046.4000, -63.953
1046.6000, -63.800
1046.8000, -63.592
1047.0000, -63.730
1047.2000, -63.596
1047.4000, -63.766
1047.6000, -63.557
1047.8000, -63.160
1048.0000, -63.040
1048.2000, -62.788
1048.4000, -62.830
1048.6000, -62.988
1048.8000, -62.657
1049.0000, -62.429
1049.2000, -62.445
1049.4000, -62.239
1049.6000, -62.141
1049.8000, -62.123
1050.0000, -62.171
1050.2000, -61.932
1050.4000, -61.956
1050.6000, -61.937
1050.8000, -61.882
1051.0000, -62.023
1051.2000, -62.036
1051.4000, -61.960
1051.6000, -62.119
1051.8000, -62.130
1052.0000, -62.111
1052.2000, -62.197
1052.4000, -62.349
1052.6000, -62.335
1052.8000, -62.513
1053.0000, -62.534
1053.2000, -62.688
1053.4000, -62.704
1053.6000, -63.097
1053.8000, -63.045
1054.0000, -63.008
1054.2000, -63.037
1054.4000, -63.183
1054.6000, -63.157
1054.8000, -63.330
1055.0000, -63.305
1055.2000, -63.397
1055.4000, -63.355
1055.6000, -63.440
1055.8000, -63.474
1056.0000, -63.487
1056.2000, -63.478
1056.4000, -63.629
1056.6000, -63.524
1056.8000, -63.568
1057.0000, -63.499
1057.2000, -63.330
1057.4000, -63.493
1057.6000, -63.582
1057.8000, -63.462
1058.0000, -63.329
1058.2000, -63.249
1058.4000, -63.243
1058.6000, -63.225
1058.8000, -62.978
1059.0000, -63.217
1059.2000, -63.002
1059.4000, -62.770
1059.6000, -62.720
1059.8000, -62.579
1060.0000, -62.583
1060.2000, -62.358
1060.4000, -62.223
1060.6000, -62.176
1060.8000, -62.079
1061.0000, -61.853
1061.2000, -61.817
1061.4000, -61.758
1061.6000, -61.334
1061.8000, -61.224
1062.0000, -61.223
1062.2000, -60.962
1062.4000, -60.877
1062.6000, -60.468
1062.8000, -60.232
1063.0000, -59.805
1063.2000, -59.234
1063.4000, -58.943
1063.6000, -56.359
1063.8000, -42.724
1064.0000, -37.134
1064.2000, -35.853
1064.4000, -35.886
1064.6000, -35.952
1064.8000, -36.322
1065.0000, -39.467
1065.2000, -53.073
1065.4000, -61.385
1065.6000, -60.420
1065.8000, -60.701
1066.0000, -60.877
1066.2000, -60.865
1066.4000, -60.861
1066.6000, -60.985
1066.8000, -61.113
1067.0000, -60.929
1067.2000, -60.914
1067.4000, -61.007
1067.6000, -61.080
1067.8000, -61.082
1068.0000, -60.769
1068.2000, -61.101
1068.4000, -61.172
1068.6000, -61.259
1068.8000, -61.425
1069.0000, -61.545
1069.2000, -61.653
1069.4000, -61.663
1069.6000, -61.688
1069.8000, -61.689
1070.0000, -61.837
1070.2000, -61.762
1070.4000, -61.752
1070.6000, -61.805
1070.8000, -61.804
1071.0000, -61.662
1071.2000, -61.631
1071.4000, -61.711
1071.6000, -61.717
1071.8000, -61.610
1072.0000, -61.765
1072.2000, -61.838
1072.4000, -61.762
1072.6000, -61.823
1072.8000, -61.523
1073.0000, -61.634
1073.2000, -61.580
1073.4000, -61.509
1073.6000, -61.488
1073.8000, -61.196
1074.0000, -61.482
1074.2000, -61.300
1074.4000, -61.294
1074.6000, -61.100
1074.8000, -61.097
1075.0000, -61.007
1075.2000, -60.983
1075.4000, -60.818
1075.6000, -60.683
1075.8000, -60.689
1076.0000, -60.553
1076.2000, -60.509
1076.4000, -60.384
1076.6000, -60.027
1076.8000, -60.224
1077.0000, -59.933
1077.2000, -60.131
1077.4000, -59.849
1077.6000, -59.735
1077.8000, -59.342
1078.0000, -59.338
1078.2000, -59.459
1078.4000, -59.310
1078.6000, -59.263
1078.8000, -59.038
1079.0000, -59.059
1079.2000, -58.969
1079.4000, -58.844
1079.6000, -59.003
1079.8000, -58.727
1080.0000, -58.524
1080.2000, -58.940
1080.4000, -58.705
1080.6000, -58.888
1080.8000, -59.088
1081.0000, -58.923
1081.2000, -58.929
1081.4000, -58.936
1081.6000, -58.986
1081.8000, -58.878
1082.0000, -59.197
1082.2000, -59.187
1082.4000, -59.226
1082.6000, -59.378
1082.8000, -59.235
1083.0000, -59.166
1083.2000, -59.460
1083.4000, -59.409
1083.6000, -59.320
1083.8000, -59.292
1084.0000, -59.757
1084.2000, -59.616
1084.4000, -59.771
1084.6000, -60.149
1084.8000, -60.349
1085.0000, -60.216
1085.2000, -60.380
1085.4000, -60.368
1085.6000, -60.528
1085.8000, -60.553
1086.0000, -60.680
1086.2000, -60.537
1086.4000, -60.707
1086.6000, -60.798
1086.8000, -60.771
1087.0000, -60.977
1087.2000, -60.689
1087.4000, -60.672
1087.6000, -60.865
1087.8000, -60.837
1088.0000, -60.843
1088.2000, -60.733
1088.4000, -60.799
1088.6000, -60.788
1088.8000, -60.839
1089.0000, -60.851
1089.2000, -60.724
1089.4000, -60.873
1089.6000, -60.723
1089.8000, -60.686
1090.0000, -60.802
1090.2000, -60.745
1090.4000, -60.658
1090.6000, -60.772
1090.8000, -60.672
1091.0000, -60.613
1091.2000, -60.616
1091.4000, -60.643
1091.6000, -60.575
1091.8000, -60.665
1092.0000, -60.616
1092.2000, -60.557
1092.4000, -60.446
1092.6000, -60.225
1092.8000, -60.283
1093.0000, -60.439
1093.2000, -60.348
1093.4000, -60.288
1093.6000, -60.149
1093.8000, -60.218
1094.0000, -60.301
1094.2000, -60.023
1094.4000, -60.119
1094.6000, -60.248
1094.8000, -60.100
1095.0000, -59.906
1095.2000, -59.884
1095.4000, -59.849
1095.6000, -59.793
1095.8000, -60.029
1096.0000, -59.860
1096.2000, -59.819
1096.4000, -59.871
1096.6000, -59.763
1096.8000, -59.837
1097.0000, -59.700
1097.2000, -59.716
1097.4000, -59.764
1097.6000, -59.723
1097.8000, -59.665
1098.0000, -59.724
1098.2000, -59.585
1098.4000, -59.650
1098.6000, -59.637
1098.8000, -59.537
1099.0000, -59.573
1099.2000, -59.596
1099.4000, -59.749
1099.6000, -59.541
1099.8000, -59.545
1100.0000, -59.553
1100.2000, -59.471
1100.4000, -59.650
1100.6000, -59.714
1100.8000, -59.630
1101.0000, -59.564
1101.2000, -59.520
1101.4000, -59.615
1101.6000, -59.484
1101.8000, -59.339
1102.0000, -59.673
1102.2000, -59.719
1102.4000, -59.761
1102.6000, -59.712
1102.8000, -59.694
1103.0000, -59.699
1103.2000, -59.840
1103.4000, -59.820
1103.6000, -59.739
1103.8000, -59.684
1104.0000, -59.762
1104.2000, -59.885
1104.4000, -59.725
1104.6000, -59.839
1104.8000, -59.701
1105.0000, -59.714
1105.2000, -59.569
1105.4000, -59.853
1105.6000, -59.721
1105.8000, -59.752
1106.0000, -59.662
1106.2000, -59.620
1106.4000, -59.689
1106.6000, -59.667
1106.8000, -59.647
1107.0000, -59.891
1107.2000, -59.627
1107.4000, -59.524
1107.6000, -59.680
1107.8000, -59.540
1108.0000, -59.477
1108.2000, -59.641
1108.4000, -59.414
1108.6000, -59.579
1108.8000, -59.399
1109.0000, -59.452
1109.2000, -59.431
1109.4000, -59.384
1109.6000, -59.375
1109.8000, -59.260
1110.0000, -59.367
1110.2000, -59.285
1110.4000, -59.398
1110.6000, -59.398
1110.8000, -59.421
1111.0000, -59.222
1111.2000, -59.317
1111.4000, -59.370
1111.6000, -59.113
1111.8000, -59.330
1112.0000, -59.299
1112.2000, -59.366
1112.4000, -59.259
1112.6000, -59.399
1112.8000, -59.358
1113.0000, -59.289
1113.2000, -59.269
1113.4000, -59.442
1113.6000, -59.322
1113.8000, -59.297
1114.0000, -59.203
1114.2000, -59.324
1114.4000, -59.224
1114.6000, -59.463
1114.8000, -59.205
1115.0000, -59.398
1115.2000, -59.375
1115.4000, -59.340
1115.6000, -59.252
1115.8000, -59.251
1116.0000, -59.295
1116.2000, -59.350
1116.4000, -59.426
1116.6000, -59.318
1116.8000, -59.411
1117.0000, -59.217
1117.2000, -59.416
1117.4000, -59.377
1117.6000, -59.356
1117.8000, -59.421
1118.0000, -59.451
1118.2000, -59.308
1118.4000, -59.552
1118.6000, -59.509
1118.8000, -59.434
1119.0000, -59.603
1119.2000, -59.543
1119.4000, -59.423
1119.6000, -59.567
1119.8000, -59.526
1120.0000, -59.512
1120.2000, -59.635
1120.4000, -59.525
1120.6000, -59.574
1120.8000, -59.636
1121.0000, -59.610
1121.2000, -59.582
1121.4000, -59.575
1121.6000, -59.734
1121.8000, -59.785
1122.0000, -59.676
1122.2000, -59.669
1122.4000, -59.525
1122.6000, -59.589
1122.8000, -59.500
1123.0000, -59.651
1123.2000, -59.719
1123.4000, -59.636
1123.6000, -59.638
1123.8000, -59.725
1124.0000, -59.811
1124.2000, -59.792
1124.4000, -59.903
1124.6000, -59.911
1124.8000, -59.874
1125.0000, -60.270
1125.2000, -60.126
1125.4000, -60.218
1125.6000, -60.317
1125.8000, -60.246
1126.0000, -60.205
1126.2000, -60.112
1126.4000, -60.277
1126.6000, -60.309
1126.8000, -60.107
1127.0000, -60.365
1127.2000, -60.300
1127.4000, -60.488
1127.6000, -60.557
1127.8000, -60.401
1128.0000, -60.483
1128.2000, -60.396
1128.4000, -60.805
1128.6000, -60.514
1128.8000, -60.661
1129.0000, -60.633
1129.2000, -60.744
1129.4000, -60.590
1129.6000, -60.559
1129.8000, -60.639
1130.0000, -60.793
1130.2000, -60.813
1130.4000, -60.838
1130.6000, -60.742
1130.8000, -60.707
1131.0000, -60.835
1131.2000, -60.778
1131.4000, -60.975
1131.6000, -60.930
1131.8000, -60.785
1132.0000, -60.899
1132.2000, -60.859
1132.4000, -60.954
1132.6000, -60.914
1132.8000, -61.191
1133.0000, -60.995
1133.2000, -60.963
1133.4000, -60.935
1133.6000, -60.866
1133.8000, -61.095
1134.0000, -60.992
1134.2000, -61.164
1134.4000, -61.171
1134.6000, -61.291
1134.8000, -61.302
1135.0000, -61.107
1135.2000, -61.219
1135.4000, -61.259
1135.6000, -61.420
1135.8000, -61.275
1136.0000, -61.264
1136.2000, -61.207
1136.4000, -61.321
1136.6000, -61.326
1136.8000, -61.315
1137.0000, -61.265
1137.2000, -61.331
1137.4000, -61.397
1137.6000, -61.431
1137.8000, -61.486
1138.0000, -61.416
1138.2000, -61.301
1138.4000, -61.435
1138.6000, -61.559
1138.8000, -61.550
1139.0000, -61.577
1139.2000, -61.633
1139.4000, -61.392
1139.6000, -61.573
1139.8000, -61.583
1140.0000, -61.589
1140.2000, -61.661
1140.4000, -61.616
1140.6000, -61.652
1140.8000, -61.623
1141.0000, -61.666
1141.2000, -61.611
1141.4000, -61.703
1141.6000, -61.649
1141.8000, -61.867
1142.0000, -61.967
1142.2000, -61.882
1142.4000, -61.775
1142.6000, -61.812
1142.8000, -61.859
1143.0000, -61.923
1143.2000, -62.024
1143.4000, -62.041
1143.6000, -61.958
1143.8000, -62.007
1144.0000, -62.049
1144.2000, -61.963
1144.4000, -61.918
1144.6000, -62.068
1144.8000, -61.912
1145.0000, -62.086
1145.2000, -62.158
1145.4000, -62.177
1145.6000, -62.243
1145.8000, -62.193
1146.0000, -61.944
1146.2000, -62.092
1146.4000, -62.137
1146.6000, -62.285
1146.8000, -62.273
1147.0000, -62.259
1147.2000, -62.296
1147.4000, -62.256
1147.6000, -62.285
1147.8000, -62.123
1148.0000, -62.280
1148.2000, -62.147
1148.4000, -62.258
1148.6000, -62.468
1148.8000, -62.414
1149.0000, -62.325
1149.2000, -62.226
1149.4000, -62.274
1149.6000, -62.372
1149.8000, -62.389
1150.0000, -62.505
1150.2000, -62.549
1150.4000, -62.418
1150.6000, -62.351
1150.8000, -62.294
1151.0000, -62.448
1151.2000, -62.376
1151.4000, -62.489
1151.6000, -62.295
1151.8000, -62.539
1152.0000, -62.341
1152.2000, -62.684
1152.4000, -62.475
1152.6000, -62.429
1152.8000, -62.415
1153.0000, -62.572
1153.2000, -62.371
1153.4000, -62.612
1153.6000, -62.593
1153.8000, -62.363
1154.0000, -62.574
1154.2000, -62.533
1154.4000, -62.634
1154.6000, -62.563
1154.8000, -62.514
1155.0000, -62.547
1155.2000, -62.581
1155.4000, -62.566
1155.6000, -62.519
1155.8000, -62.549
1156.0000, -62.662
1156.2000, -62.514
1156.4000, -62.526
1156.6000, -62.571
1156.8000, -62.685
1157.0000, -62.471
1157.2000, -62.556
1157.4000, -62.434
1157.6000, -62.640
1157.8000, -62.611
1158.0000, -62.441
1158.2000, -62.557
1158.4000, -62.608
1158.6000, -62.465
1158.8000, -62.728
1159.0000, -62.552
1159.2000, -62.654
1159.4000, -62.594
1159.6000, -62.663
1159.8000, -62.628
1160.0000, -62.655
1160.2000, -62.565
1160.4000, -62.490
1160.6000, -62.794
1160.8000, -62.643
1161.0000, -62.537
1161.2000, -62.611
1161.4000, -62.589
1161.6000, -62.569
1161.8000, -62.577
1162.0000, -62.675
1162.2000, -62.665
1162.4000, -62.718
1162.6000, -62.717
1162.8000, -62.525
1163.0000, -62.666
1163.2000, -62.574
1163.4000, -62.846
1163.6000, -62.602
1163.8000, -62.663
1164.0000, -62.548
1164.2000, -62.802
1164.4000, -62.743
1164.6000, -62.622
1164.8000, -62.593
1165.0000, -62.738
1165.2000, -62.713
1165.4000, -62.631
1165.6000, -62.625
1165.8000, -62.730
1166.0000, -62.694
1166.2000, -62.702
1166.4000, -62.700
1166.6000, -62.613
1166.8000, -62.737
1167.0000, -62.820
1167.2000, -62.578
1167.4000, -62.749
1167.6000, -62.761
1167.8000, -62.634
1168.0000, -62.856
1168.2000, -62.804
1168.4000, -62.702
1168.6000, -62.813
1168.8000, -62.562
1169.0000, -62.800
1169.2000, -62.861
1169.4000, -62.845
1169.6000, -62.942
1169.8000, -62.880
1170.0000, -62.949
1170.2000, -62.913
1170.4000, -62.872
1170.6000, -62.755
1170.8000, -62.895
1171.0000, -62.980
1171.2000, -63.016
1171.4000, -62.894
1171.6000, -63.041
1171.8000, -62.859
1172.0000, -63.042
1172.2000, -63.026
1172.4000, -62.974
1172.6000, -63.031
1172.8000, -63.024
1173.0000, -63.015
1173.2000, -62.985
1173.4000, -62.998
1173.6000, -63.189
1173.8000, -63.094
1174.0000, -63.117
1174.2000, -63.285
1174.4000, -63.111
1174.6000, -63.110
1174.8000, -63.289
1175.0000, -63.314
1175.2000, -63.161
1175.4000, -63.102
1175.6000, -62.964
1175.8000, -63.084
1176.0000, -63.257
1176.2000, -63.421
1176.4000, -63.110
1176.6000, -63.104
1176.8000, -63.183
1177.0000, -63.307
1177.2000, -63.298
1177.4000, -63.203
1177.6000, -63.278
1177.8000, -63.292
1178.0000, -63.321
1178.2000, -63.311
1178.4000, -63.370
1178.6000, -63.282
1178.8000, -63.424
1179.0000, -63.357
1179.2000, -63.500
1179.4000, -63.314
1179.6000, -63.685
1179.8000, -63.407
1180.0000, -63.472
1180.2000, -63.379
1180.4000, -63.523
1180.6000, -63.639
1180.8000, -63.552
1181.0000, -63.595
1181.2000, -63.516
1181.4000, -63.738
1181.6000, -63.557
1181.8000, -63.525
1182.0000, -63.660
1182.2000, -63.527
1182.4000, -63.664
1182.6000, -63.626
1182.8000, -63.625
1183.0000, -63.638
1183.2000, -63.785
1183.4000, -63.761
1183.6000, -63.748
1183.8000, -63.601
1184.0000, -63.579
1184.2000, -63.666
1184.4000, -63.775
1184.6000, -63.888
1184.8000, -63.868
1185.0000, -63.699
1185.2000, -63.909
1185.4000, -63.980
1185.6000, -63.777
1185.8000, -63.958
1186.0000, -63.807
1186.2000, -63.951
1186.4000, -63.907
1186.6000, -63.845
1186.8000, -63.938
1187.0000, -63.962
1187.2000, -64.107
1187.4000, -64.088
1187.6000, -63.989
1187.8000, -63.960
1188.0000, -64.055
1188.2000, -64.042
1188.4000, -64.133
1188.6000, -64.090
1188.8000, -64.051
1189.0000, -64.060
1189.2000, -64.167
1189.4000, -64.129
1189.6000, -64.031
1189.8000, -64.107
1190.0000, -64.086
1190.2000, -63.948
1190.4000, -64.063
1190.6000, -64.071
1190.8000, -64.119
1191.0000, -64.076
1191.2000, -64.140
1191.4000, -64.393
1191.6000, -64.157
1191.8000, -64.175
1192.0000, -64.216
1192.2000, -64.111
1192.4000, -64.073
1192.6000, -64.189
1192.8000, -64.227
1193.0000, -64.208
1193.2000, -64.275
1193.4000, -64.471
1193.6000, -64.320
1193.8000, -64.247
1194.0000, -64.302
1194.2000, -64.402
1194.4000, -64.517
1194.6000, -64.173
1194.8000, -64.298
1195.0000, -64.366
1195.2000, -64.494
1195.4000, -64.313
1195.6000, -64.157
1195.8000, -64.322
1196.0000, -64.476
1196.2000, -64.253
1196.4000, -64.462
1196.6000, -64.591
1196.8000, -64.567
1197.0000, -64.366
1197.2000, -64.417
1197.4000, -64.604
1197.6000, -64.425
1197.8000, -64.470
1198.0000, -64.555
1198.2000, -64.466
1198.4000, -64.436
1198.6000, -64.713
1198.8000, -64.594
1199.0000, -64.664
1199.2000, -64.522
1199.4000, -64.567
1199.6000, -64.617
1199.8000, -64.563
1200.0000, -64.658
1200.2000, -64.622
1200.4000, -64.619
1200.6000, -64.547
1200.8000, -64.580
1201.0000, -64.621
1201.2000, -64.582
1201.4000, -64.611
1201.6000, -64.737
1201.8000, -64.638
1202.0000, -64.761
1202.2000, -64.772
1202.4000, -64.510
1202.6000, -64.828
1202.8000, -64.935
1203.0000, -64.726
1203.2000, -64.727
1203.4000, -64.685
1203.6000, -64.784
1203.8000, -64.736
1204.0000, -64.840
1204.2000, -64.798
1204.4000, -64.733
1204.6000, -64.865
1204.8000, -64.720
1205.0000, -64.930
1205.2000, -64.785
1205.4000, -64.679
1205.6000, -64.921
1205.8000, -64.840
1206.0000, -64.827
1206.2000, -65.006
1206.4000, -64.976
1206.6000, -64.997
1206.8000, -65.099
1207.0000, -65.103
1207.2000, -65.104
1207.4000, -65.008
1207.6000, -64.977
1207.8000, -65.140
1208.0000, -65.158
1208.2000, -64.884
1208.4000, -65.092
1208.6000, -64.965
1208.8000, -65.036
1209.0000, -65.177
1209.2000, -65.180
1209.4000, -65.231
1209.6000, -65.104
1209.8000, -65.166
1210.0000, -65.275
1210.2000, -65.149
1210.4000, -65.306
1210.6000, -65.089
1210.8000, -65.184
1211.0000, -65.260
1211.2000, -65.114
1211.4000, -65.203
1211.6000, -65.210
1211.8000, -65.246
1212.0000, -65.276
1212.2000, -65.246
1212.4000, -65.263
1212.6000, -65.161
1212.8000, -65.109
1213.0000, -65.384
1213.2000, -65.214
1213.4000, -65.347
1213.6000, -65.306
1213.8000, -65.259
1214.0000, -65.326
1214.2000, -65.297
1214.4000, -65.390
1214.6000, -65.346
1214.8000, -65.398
1215.0000, -65.272
1215.2000, -65.416
1215.4000, -65.420
1215.6000, -65.406
1215.8000, -65.400
1216.0000, -65.431
1216.2000, -65.540
1216.4000, -65.294
1216.6000, -65.448
1216.8000, -65.416
1217.0000, -65.393
1217.2000, -65.418
1217.4000, -65.445
1217.6000, -65.472
1217.8000, -65.596
1218.0000, -65.238
1218.2000, -65.525
1218.4000, -65.552
1218.6000, -65.458
1218.8000, -65.483
1219.0000, -65.489
1219.2000, -65.679
1219.4000, -65.596
1219.6000, -65.696
1219.8000, -65.685
1220.0000, -65.597
1220.2000, -65.454
1220.4000, -65.660
1220.6000, -65.725
1220.8000, -65.610
1221.0000, -65.667
1221.2000, -65.741
1221.4000, -65.565
1221.6000, -65.646
1221.8000, -65.685
1222.0000, -65.723
1222.2000, -65.670
1222.4000, -65.895
1222.6000, -65.851
1222.8000, -65.864
1223.0000, -65.710
1223.2000, -65.742
1223.4000, -65.814
1223.6000, -65.748
1223.8000, -65.702
1224.0000, -65.774
1224.2000, -65.702
1224.4000, -65.952
1224.6000, -65.744
1224.8000, -65.836
1225.0000, -65.724
1225.2000, -65.771
1225.4000, -65.868
1225.6000, -65.847
1225.8000, -65.813
1226.0000, -65.692
1226.2000, -65.731
1226.4000, -66.053
1226.6000, -65.972
1226.8000, -65.749
1227.0000, -65.871
1227.2000, -66.015
1227.4000, -65.896
1227.6000, -65.983
1227.8000, -66.196
1228.0000, -65.886
1228.2000, -66.010
1228.4000, -66.014
1228.6000, -66.167
1228.8000, -66.047
1229.0000, -66.108
1229.2000, -66.121
1229.4000, -66.130
1229.6000, -66.252
1229.8000, -65.963
1230.0000, -66.086
1230.2000, -65.974
1230.4000, -65.991
1230.6000, -66.093
1230.8000, -66.088
1231.0000, -65.998
1231.2000, -66.277
1231.4000, -66.158
1231.6000, -66.121
1231.8000, -66.252
1232.0000, -66.173
1232.2000, -66.321
1232.4000, -66.136
1232.6000, -66.251
1232.8000, -66.163
1233.0000, -66.100
1233.2000, -66.231
1233.4000, -66.525
1233.6000, -66.118
1233.8000, -66.294
1234.0000, -66.404
1234.2000, -66.316
1234.4000, -66.400
1234.6000, -66.387
1234.8000, -66.187
1235.0000, -66.261
1235.2000, -66.492
1235.4000, -66.561
1235.6000, -66.416
1235.8000, -66.441
1236.0000, -66.430
1236.2000, -66.534
1236.4000, -66.537
1236.6000, -66.620
1236.8000, -66.508
1237.0000, -66.705
1237.2000, -66.418
1237.4000, -66.499
1237.6000, -66.493
1237.8000, -66.628
1238.0000, -66.575
1238.2000, -66.644
1238.4000, -66.737
1238.6000, -66.806
1238.8000, -66.892
1239.0000, -66.792
1239.2000, -66.871
1239.4000, -66.687
1239.6000, -66.907
1239.8000, -66.842
1240.0000, -66.967
1240.2000, -66.685
1240.4000, -66.697
1240.6000, -66.721
1240.8000, -66.962
1241.0000, -66.892
1241.2000, -66.910
1241.4000, -66.840
1241.6000, -66.936
1241.8000, -66.989
1242.0000, -66.946
1242.2000, -66.852
1242.4000, -66.726
1242.6000, -67.014
1242.8000, -67.044
1243.0000, -67.080
1243.2000, -67.152
1243.4000, -67.109
1243.6000, -67.048
1243.8000, -67.100
1244.0000, -67.165
1244.2000, -66.991
1244.4000, -67.229
1244.6000, -66.841
1244.8000, -67.218
1245.0000, -67.246
1245.2000, -67.282
1245.4000, -67.138
1245.6000, -67.041
1245.8000, -67.234
1246.0000, -67.204
1246.2000, -67.228
1246.4000, -67.145
1246.6000, -67.108
1246.8000, -67.219
1247.0000, -67.466
1247.2000, -67.288
1247.4000, -67.259
1247.6000, -67.120
1247.8000, -67.367
1248.0000, -67.265
1248.2000, -67.444
1248.4000, -67.402
1248.6000, -67.294
1248.8000, -67.429
1249.0000, -67.530
1249.2000, -67.419
1249.4000, -67.369
1249.6000, -67.506
1249.8000, -67.436
1250.0000, -67.385
1250.2000, -67.475
1250.4000, -67.607
1250.6000, -67.370
1250.8000, -67.586
1251.0000, -67.479
1251.2000, -67.374
1251.4000, -67.462
1251.6000, -67.360
1251.8000, -67.726
1252.0000, -67.737
1252.2000, -67.687
1252.4000, -67.607
1252.6000, -67.544
1252.8000, -67.558
1253.0000, -67.523
1253.2000, -67.517
1253.4000, -67.607
1253.6000, -67.698
1253.8000, -67.648
1254.0000, -67.637
1254.2000, -67.679
1254.4000, -67.658
1254.6000, -67.699
1254.8000, -67.776
1255.0000, -67.812
1255.2000, -67.812
1255.4000, -67.710
1255.6000, -67.900
1255.8000, -67.750
1256.0000, -67.646
1256.2000, -67.823
1256.4000, -67.744
1256.6000, -67.605
1256.8000, -68.066
1257.0000, -67.907
1257.2000, -67.805
1257.4000, -67.717
1257.6000, -67.914
1257.8000, -67.770
1258.0000, -67.723
1258.2000, -67.920
1258.4000, -67.758
1258.6000, -67.890
1258.8000, -67.847
1259.0000, -67.901
1259.2000, -67.906
1259.4000, -67.908
1259.6000, -68.062
1259.8000, -67.897
1260.0000, -67.817
1260.2000, -67.865
1260.4000, -67.941
1260.6000, -67.759
1260.8000, -67.943
1261.0000, -68.004
1261.2000, -68.303
1261.4000, -68.104
1261.6000, -67.945
1261.8000, -67.953
1262.0000, -67.985
1262.2000, -68.136
1262.4000, -67.846
1262.6000, -68.067
1262.8000, -68.037
1263.0000, -68.052
1263.2000, -68.141
1263.4000, -68.052
1263.6000, -68.082
1263.8000, -68.078
1264.0000, -68.341
1264.2000, -68.090
1264.4000, -68.207
1264.6000, -68.133
1264.8000, -68.209
1265.0000, -68.140
1265.2000, -68.075
1265.4000, -68.334
1265.6000, -68.246
1265.8000, -68.182
1266.0000, -68.517
1266.2000, -68.206
1266.4000, -68.285
1266.6000, -68.354
1266.8000, -68.337
1267.0000, -68.300
1267.2000, -68.271
1267.4000, -68.226
1267.6000, -68.296
1267.8000, -68.440
1268.0000, -68.371
1268.2000, -68.194
1268.4000, -68.372
1268.6000, -68.375
1268.8000, -68.431
1269.0000, -68.652
1269.2000, -68.559
1269.4000, -68.387
1269.6000, -68.337
1269.8000, -68.092
1270.0000, -68.489
1270.2000, -68.510
1270.4000, -68.561
1270.6000, -68.586
1270.8000, -68.564
1271.0000, -68.318
1271.2000, -68.468
1271.4000, -68.829
1271.6000, -68.525
1271.8000, -68.569
1272.0000, -68.514
1272.2000, -68.535
1272.4000, -68.437
1272.6000, -68.470
1272.8000, -68.485
1273.0000, -68.529
1273.2000, -68.699
1273.4000, -68.582
1273.6000, -68.749
1273.8000, -68.465
1274.0000, -68.700
1274.2000, -68.524
1274.4000, -68.559
1274.6000, -68.658
1274.8000, -68.663
1275.0000, -68.533
1275.2000, -68.863
1275.4000, -68.689
1275.6000, -68.553
1275.8000, -68.778
1276.0000, -68.750
1276.2000, -68.622
1276.4000, -68.716
1276.6000, -68.713
1276.8000, -68.635
1277.0000, -68.681
1277.2000, -69.033
1277.4000, -68.778
1277.6000, -68.641
1277.8000, -68.646
1278.0000, -69.023
1278.2000, -68.902
1278.4000, -68.753
1278.6000, -68.696
1278.8000, -68.886
1279.0000, -68.838
1279.2000, -68.890
1279.4000, -68.997
1279.6000, -68.817
1279.8000, -68.858
1280.0000, -68.856
1280.2000, -69.118
1280.4000, -69.015
1280.6000, -69.005
1280.8000, -68.968
1281.0000, -68.888
1281.2000, -68.973
1281.4000, -69.132
1281.6000, -69.358
1281.8000, -69.081
1282.0000, -69.088
1282.2000, -69.153
1282.4000, -69.282
1282.6000, -69.028
1282.8000, -69.014
1283.0000, -69.110
1283.2000, -69.179
1283.4000, -69.240
1283.6000, -69.004
1283.8000, -69.008
1284.0000, -69.296
1284.2000, -69.088
1284.4000, -69.041
1284.6000, -69.364
1284.8000, -69.208
1285.0000, -69.209
1285.2000, -69.032
1285.4000, -69.302
1285.6000, -69.147
1285.8000, -68.983
1286.0000, -69.193
1286.2000, -69.561
1286.4000, -69.316
1286.6000, -69.365
1286.8000, -69.225
1287.0000, -69.436
1287.2000, -69.057
1287.4000, -69.463
1287.6000, -69.089
1287.8000, -69.259
1288.0000, -69.182
1288.2000, -69.352
1288.4000, -69.241
1288.6000, -69.473
1288.8000, -69.553
1289.0000, -69.209
1289.2000, -69.372
1289.4000, -69.486
1289.6000, -69.441
1289.8000, -69.474
1290.0000, -69.266
1290.2000, -69.247
1290.4000, -69.280
1290.6000, -69.536
1290.8000, -69.441
1291.0000, -69.470
1291.2000, -69.344
1291.4000, -69.562
1291.6000, -69.609
1291.8000, -69.574
1292.0000, -69.845
1292.2000, -69.637
1292.4000, -69.625
1292.6000, -69.522
1292.8000, -69.378
1293.0000, -69.535
1293.2000, -69.309
1293.4000, -69.469
1293.6000, -69.474
1293.8000, -69.746
1294.0000, -69.635
1294.2000, -69.746
1294.4000, -69.800
1294.6000, -69.345
1294.8000, -69.674
1295.0000, -69.641
1295.2000, -69.992
1295.4000, -69.574
1295.6000, -69.805
1295.8000, -69.435
1296.0000, -69.625
1296.2000, -69.843
1296.4000, -69.448
1296.6000, -69.694
1296.8000, -69.721
1297.0000, -69.606
1297.2000, -69.771
1297.4000, -69.692
1297.6000, -69.909
1297.8000, -69.661
1298.0000, -69.536
1298.2000, -69.944
1298.4000, -70.050
1298.6000, -70.103
1298.8000, -69.883
1299.0000, -69.787
1299.2000, -69.621
1299.4000, -69.931
1299.6000, -69.857
1299.8000, -69.831
1300.0000, -70.013
1300.2000, -69.734
1300.4000, -70.011
1300.6000, -69.847
1300.8000, -69.956
1301.0000, -69.998
1301.2000, -69.713
1301.4000, -69.797
1301.6000, -69.990
1301.8000, -70.036
1302.0000, -69.982
1302.2000, -69.874
1302.4000, -70.059
1302.6000, -70.074
1302.8000, -70.214
1303.0000, -70.353
1303.2000, -70.243
1303.4000, -69.929
1303.6000, -70.105
1303.8000, -70.012
1304.0000, -70.082
1304.2000, -70.084
1304.4000, -70.246
1304.6000, -70.239
1304.8000, -70.254
1305.0000, -70.453
1305.2000, -70.094
1305.4000, -70.168
1305.6000, -70.115
1305.8000, -70.567
1306.0000, -70.136
1306.2000, -70.172
1306.4000, -70.215
1306.6000, -70.117
1306.8000, -70.153
1307.0000, -70.289
1307.2000, -70.215
1307.4000, -69.944
1307.6000, -70.183
1307.8000, -70.262
1308.0000, -70.541
1308.2000, -70.176
1308.4000, -70.698
1308.6000, -70.659
1308.8000, -70.097
1309.0000, -70.020
1309.2000, -70.409
1309.4000, -70.192
1309.6000, -70.309
1309.8000, -70.570
1310.0000, -70.274
1310.2000, -70.413
1310.4000, -70.365
1310.6000, -70.220
1310.8000, -70.294
1311.0000, -70.486
1311.2000, -70.492
1311.4000, -70.489
1311.6000, -70.443
1311.8000, -70.257
1312.0000, -70.563
1312.2000, -70.716
1312.4000, -70.296
1312.6000, -70.439
1312.8000, -70.566
1313.0000, -70.513
1313.2000, -70.674
1313.4000, -70.558
1313.6000, -70.443
1313.8000, -70.452
1314.0000, -70.701
1314.2000, -70.501
1314.4000, -70.705
1314.6000, -70.920
1314.8000, -70.535
1315.0000, -70.523
1315.2000, -70.497
1315.4000, -70.801
1315.6000, -70.456
1315.8000, -70.574
1316.0000, -70.556
1316.2000, -70.891
1316.4000, -70.376
1316.6000, -70.661
1316.8000, -70.548
1317.0000, -70.931
1317.2000, -70.885
1317.4000, -70.723
1317.6000, -70.736
1317.8000, -70.747
1318.0000, -70.710
1318.2000, -70.767
1318.4000, -70.526
1318.6000, -70.598
1318.8000, -71.080
1319.0000, -70.727
1319.2000, -70.782
1319.4000, -70.571
1319.6000, -71.088
1319.8000, -71.023
1320.0000, -70.798
1320.2000, -70.989
1320.4000, -70.858
1320.6000, -70.846
1320.8000, -70.815
1321.0000, -70.627
1321.2000, -70.561
1321.4000, -70.958
1321.6000, -70.802
1321.8000, -70.830
1322.0000, -70.817
1322.2000, -71.067
1322.4000, -71.084
1322.6000, -70.757
1322.8000, -70.833
1323.0000, -71.010
1323.2000, -70.899
1323.4000, -71.035
1323.6000, -71.116
1323.8000, -70.981
1324.0000, -70.864
1324.2000, -71.130
1324.4000, -71.230
1324.6000, -71.050
1324.8000, -71.098
1325.0000, -70.761
1325.2000, -70.978
1325.4000, -70.988
1325.6000, -71.103
1325.8000, -71.304
1326.0000, -71.187
1326.2000, -71.349
1326.4000, -71.077
1326.6000, -71.156
1326.8000, -71.348
1327.0000, -71.397
1327.2000, -71.109
1327.4000, -71.270
1327.6000, -71.460
1327.8000, -71.247
1328.0000, -71.321
1328.2000, -71.401
1328.4000, -71.183
1328.6000, -71.228
1328.8000, -71.182
1329.0000, -71.100
1329.2000, -71.092
1329.4000, -71.463
1329.6000, -71.254
1329.8000, -71.256
1330.0000, -71.248
1330.2000, -71.243
1330.4000, -71.368
1330.6000, -71.879
1330.8000, -71.427
1331.0000, -71.388
1331.2000, -71.182
1331.4000, -71.468
1331.6000, -71.427
1331.8000, -71.323
1332.0000, -71.278
1332.2000, -71.584
1332.4000, -71.439
1332.6000, -71.522
1332.8000, -71.342
1333.0000, -71.253
1333.2000, -71.522
1333.4000, -71.612
1333.6000, -71.582
1333.8000, -71.384
1334.0000, -71.583
1334.2000, -71.390
1334.4000, -71.323
1334.6000, -71.270
1334.8000, -71.598
1335.0000, -71.587
1335.2000, -71.326
1335.4000, -71.760
1335.6000, -71.485
1335.8000, -71.634
1336.0000, -71.782
1336.2000, -71.870
1336.4000, -71.701
1336.6000, -71.708
1336.8000, -71.834
1337.0000, -71.316
1337.2000, -71.593
1337.4000, -72.001
1337.6000, -71.846
1337.8000, -71.700
1338.0000, -71.842
1338.2000, -71.685
1338.4000, -71.405
1338.6000, -71.747
1338.8000, -71.831
1339.0000, -71.690
1339.2000, -71.865
1339.4000, -71.948
1339.6000, -71.578
1339.8000, -71.999
1340.0000, -71.877
1340.2000, -71.930
1340.4000, -72.066
1340.6000, -72.147
1340.8000, -71.918
1341.0000, -71.948
1341.2000, -72.253
1341.4000, -71.893
1341.6000, -72.034
1341.8000, -71.935
1342.0000, -72.033
1342.2000, -71.700
1342.4000, -71.996
1342.6000, -72.060
1342.8000, -71.633
1343.0000, -72.117
1343.2000, -72.087
1343.4000, -71.800
1343.6000, -72.517
1343.8000, -72.040
1344.0000, -72.215
1344.2000, -71.952
1344.4000, -72.078
1344.6000, -71.948
1344.8000, -72.150
1345.0000, -72.065
1345.2000, -72.103
1345.4000, -72.066
1345.6000, -72.200
1345.8000, -72.140
1346.0000, -72.094
1346.2000, -72.574
1346.4000, -72.387
1346.6000, -72.534
1346.8000, -72.534
1347.0000, -71.830
1347.2000, -72.184
1347.4000, -72.072
1347.6000, -72.382
1347.8000, -72.540
1348.0000, -72.422
1348.2000, -72.856
1348.4000, -72.562
1348.6000, -72.032
1348.8000, -72.163
1349.0000, -72.550
1349.2000, -72.354
1349.4000, -72.928
1349.6000, -72.425
1349.8000, -72.367
1350.0000, -72.866
1350.2000, -72.312
1350.4000, -73.077
1350.6000, -72.764
1350.8000, -72.960
1351.0000, -72.678
1351.2000, -73.062
1351.4000, -72.721
1351.6000, -72.717
1351.8000, -72.469
1352.0000, -72.734
1352.2000, -72.855
1352.4000, -72.587
1352.6000, -72.963
1352.8000, -73.048
1353.0000, -72.793
1353.2000, -72.903
1353.4000, -73.112
1353.6000, -72.785
1353.8000, -73.081
1354.0000, -73.183
1354.2000, -73.016
1354.4000, -73.328
1354.6000, -73.212
1354.8000, -73.299
1355.0000, -73.550
1355.2000, -73.270
1355.4000, -73.255
1355.6000, -73.511
1355.8000, -73.704
1356.0000, -73.522
1356.2000, -73.276
1356.4000, -73.054
1356.6000, -73.364
1356.8000, -73.293
1357.0000, -73.633
1357.2000, -73.407
1357.4000, -73.647
1357.6000, -73.231
1357.8000, -72.978
1358.0000, -73.680
1358.2000, -73.555
1358.4000, -73.348
1358.6000, -73.388
1358.8000, -73.262
1359.0000, -73.376
1359.2000, -73.793
1359.4000, -73.708
1359.6000, -73.955
1359.8000, -73.590
1360.0000, -73.660
1360.2000, -72.969
1360.4000, -73.926
1360.6000, -73.835
1360.8000, -74.282
1361.0000, -74.027
1361.2000, -74.295
1361.4000, -74.012
1361.6000, -73.829
1361.8000, -74.517
1362.0000, -74.967
1362.2000, -74.283
1362.4000, -74.267
1362.6000, -74.683
1362.8000, -73.919
1363.0000, -73.492
1363.2000, -73.520
1363.4000, -73.629
1363.6000, -73.565
1363.8000, -74.065
1364.0000, -73.853
1364.2000, -74.253
1364.4000, -75.042
1364.6000, -74.568
1364.8000, -75.080
1365.0000, -74.746
1365.2000, -74.451
1365.4000, -73.908
1365.6000, -74.232
1365.8000, -74.381
1366.0000, -74.107
1366.2000, -73.535
1366.4000, -73.661
1366.6000, -74.637
1366.8000, -74.043
1367.0000, -73.652
1367.2000, -74.379
1367.4000, -74.233
1367.6000, -74.675
1367.8000, -75.094
1368.0000, -74.918
1368.2000, -74.618
1368.4000, -74.332
1368.6000, -74.804
1368.8000, -74.755
1369.0000, -75.281
1369.2000, -74.251
1369.4000, -74.049
1369.6000, -74.280
1369.8000, -74.292
1370.0000, -73.791
1370.2000, -74.720
1370.4000, -74.806
1370.6000, -75.387
1370.8000, -74.824
1371.0000, -75.178
1371.2000, -75.092
1371.4000, -74.921
1371.6000, -74.709
1371.8000, -74.704
1372.0000, -74.786
1372.2000, -74.665
1372.4000, -74.620
1372.6000, -75.029
1372.8000, -74.446
1373.0000, -75.214
1373.2000, -74.835
1373.4000, -75.081
1373.6000, -74.819
1373.8000, -75.011
1374.0000, -74.816
1374.2000, -75.405
1374.4000, -74.494
1374.6000, -75.063
1374.8000, -75.589
1375.0000, -75.752
1375.2000, -75.240
1375.4000, -75.117
1375.6000, -75.057
1375.8000, -75.587
1376.0000, -74.607
1376.2000, -75.810
1376.4000, -75.602
1376.6000, -75.321
1376.8000, -75.198
1377.0000, -76.042
1377.2000, -76.574
1377.4000, -75.434
1377.6000, -75.450
1377.8000, -76.214
1378.0000, -76.111
1378.2000, -76.073
1378.4000, -76.100
1378.6000, -76.034
1378.8000, -76.150
1379.0000, -75.782
1379.2000, -75.994
1379.4000, -75.892
1379.6000, -76.075
1379.8000, -76.269
1380.0000, -76.359
1380.2000, -76.981
1380.4000, -77.419
1380.6000, -76.919
1380.8000, -77.451
1381.0000, -77.681
1381.2000, -78.142
1381.4000, -76.796
1381.6000, -76.678
1381.8000, -76.061
1382.0000, -77.371
1382.2000, -77.933
1382.4000, -78.601
1382.6000, -77.795
1382.8000, -79.470
1383.0000, -79.571
1383.2000, -77.951
1383.4000, -78.149
1383.6000, -77.188
1383.8000, -76.990
1384.0000, -77.091
1384.2000, -76.764
1384.4000, -77.096
1384.6000, -77.329
1384.8000, -78.045
1385.0000, -77.603
1385.2000, -79.300
1385.4000, -77.837
1385.6000, -76.310
1385.8000, -77.529
1386.0000, -78.587
1386.2000, -78.252
1386.4000, -77.670
1386.6000, -78.932
1386.8000, -76.649
1387.0000, -78.610
1387.2000, -77.440
1387.4000, -77.016
1387.6000, -77.437
1387.8000, -78.739
1388.0000, -78.226
1388.2000, -78.989
1388.4000, -79.057
1388.6000, -78.809
1388.8000, -77.276
1389.0000, -78.491
1389.2000, -78.716
1389.4000, -78.265
1389.6000, -78.605
1389.8000, -79.127
1390.0000, -79.317
1390.2000, -79.616
1390.4000, -79.210
1390.6000, -78.694
1390.8000, -78.747
1391.0000, -78.194
1391.2000, -78.517
1391.4000, -80.319
1391.6000, -77.821
1391.8000, -78.799
1392.0000, -79.143
1392.2000, -80.881
1392.4000, -79.017
1392.6000, -79.088
1392.8000, -78.990
1393.0000, -79.391
1393.2000, -79.582
1393.4000, -79.996
1393.6000, -79.615
1393.8000, -79.384
1394.0000, -79.330
1394.2000, -78.069
1394.4000, -80.711
1394.6000, -80.008
1394.8000, -79.389
1395.0000, -79.441
1395.2000, -81.756
1395.4000, -80.228
1395.6000, -79.000
1395.8000, -81.544
1396.0000, -81.869
1396.2000, -80.262
1396.4000, -81.352
1396.6000, -80.015
1396.8000, -79.913
1397.0000, -81.657
1397.2000, -79.219
1397.4000, -78.754
1397.6000, -79.272
1397.8000, -78.947
1398.0000, -80.990
1398.2000, -79.195
1398.4000, -82.556
1398.6000, -79.813
1398.8000, -78.842
1399.0000, -79.150
1399.2000, -79.064
1399.4000, -81.504
1399.6000, -81.783
1399.8000, -79.902
1400.0000, -78.893
1400.2000, -81.959
1400.4000, -81.041
1400.6000, -79.515
1400.8000, -80.764
1401.0000, -80.950
1401.2000, -81.410
1401.4000, -82.984
1401.6000, -81.402
1401.8000, -80.249
1402.0000, -78.697
1402.2000, -80.043
1402.4000, -80.031
1402.6000, -80.195
1402.8000, -79.654
1403.0000, -79.101
1403.2000, -79.361
1403.4000, -79.002
1403.6000, -79.907
1403.8000, -81.542
1404.0000, -79.439
1404.2000, -80.375
1404.4000, -80.795
1404.6000, -85.272
1404.8000, -80.053
1405.0000, -79.004
1405.2000, -80.437
1405.4000, -80.976
1405.6000, -78.798
1405.8000, -80.674
1406.0000, -80.853
1406.2000, -79.171
1406.4000, -83.097
1406.6000, -78.362
1406.8000, -82.461
1407.0000, -79.159
1407.2000, -80.765
1407.4000, -80.231
1407.6000, -80.271
1407.8000, -79.871
1408.0000, -80.823
1408.2000, -79.935
1408.4000, -80.911
1408.6000, -81.165
1408.8000, -84.889
1409.0000, -80.523
1409.2000, -81.407
1409.4000, -81.903
1409.6000, -80.533
1409.8000, -78.508
1410.0000, -79.840
1410.2000, -78.865
1410.4000, -82.479
1410.6000, -80.920
1410.8000, -78.365
1411.0000, -79.650
1411.2000, -81.711
1411.4000, -79.487
1411.6000, -78.334
1411.8000, -78.439
1412.0000, -79.213
1412.2000, -79.967
1412.4000, -81.103
1412.6000, -79.608
1412.8000, -79.278
1413.0000, -78.616
1413.2000, -80.275
1413.4000, -80.233
1413.6000, -81.599
1413.8000, -79.438
1414.0000, -79.526
1414.2000, -78.583
1414.4000, -81.495
1414.6000, -80.999
1414.8000, -80.514
1415.0000, -84.244
1415.2000, -80.101
1415.4000, -80.212
1415.6000, -80.844
1415.8000, -78.606
1416.0000, -80.596
1416.2000, -81.997
1416.4000, -79.177
1416.6000, -78.284
1416.8000, -78.460
1417.0000, -78.895
1417.2000, -79.545
1417.4000, -79.374
1417.6000, -80.087
1417.8000, -79.778
1418.0000, -79.533
1418.2000, -79.752
1418.4000, -79.400
1418.6000, -78.765
1418.8000, -79.206
1419.0000, -80.454
1419.2000, -77.902
1419.4000, -79.502
1419.6000, -81.111
1419.8000, -79.378
1420.0000, -77.947
1420.2000, -78.143
1420.4000, -78.877
1420.6000, -79.394
1420.8000, -78.702
1421.0000, -79.994
1421.2000, -79.242
1421.4000, -82.389
1421.6000, -79.426
1421.8000, -79.103
1422.0000, -77.449
1422.2000, -80.512
1422.4000, -79.963
1422.6000, -79.163
1422.8000, -79.918
1423.0000, -79.745
1423.2000, -79.011
1423.4000, -81.800
1423.6000, -78.715
1423.8000, -80.564
1424.0000, -81.012
1424.2000, -82.491
1424.4000, -78.837
1424.6000, -78.752
1424.8000, -79.801
1425.0000, -80.755
1425.2000, -80.782
1425.4000, -78.528
1425.6000, -81.535
1425.8000, -79.397
1426.0000, -80.259
1426.2000, -79.657
1426.4000, -79.856
1426.6000, -78.698
1426.8000, -79.827
1427.0000, -80.973
1427.2000, -81.307
1427.4000, -79.531
1427.6000, -79.122
1427.8000, -79.620
1428.0000, -80.781
1428.2000, -79.223
1428.4000, -79.839
1428.6000, -78.800
1428.8000, -81.257
1429.0000, -79.293
1429.2000, -79.895
1429.4000, -79.098
1429.6000, -78.403
1429.8000, -78.617
1430.0000, -81.294
1430.2000, -79.762
1430.4000, -79.075
1430.6000, -79.661
1430.8000, -83.132
1431.0000, -79.776
1431.2000, -78.791
1431.4000, -79.145
1431.6000, -79.919
1431.8000, -79.434
1432.0000, -79.765
1432.2000, -80.012
1432.4000, -81.457
1432.6000, -79.701
1432.8000, -79.208
1433.0000, -79.900
1433.2000, -81.062
1433.4000, -80.836
1433.6000, -80.362
1433.8000, -81.522
1434.0000, -81.226
1434.2000, -79.754
1434.4000, -79.445
1434.6000, -80.342
1434.8000, -80.143
1435.0000, -80.437
1435.2000, -79.991
1435.4000, -78.576
1435.6000, -79.977
1435.8000, -80.132
1436.0000, -79.546
1436.2000, -80.034
1436.4000, -78.098
1436.6000, -80.873
1436.8000, -79.216
1437.0000, -79.484
1437.2000, -79.266
1437.4000, -83.064
1437.6000, -81.552
1437.8000, -79.078
1438.0000, -80.200
1438.2000, -79.899
1438.4000, -80.520
1438.6000, -82.218
1438.8000, -79.177
1439.0000, -79.311
1439.2000, -79.207
1439.4000, -83.711
1439.6000, -79.904
1439.8000, -78.390
1440.0000, -78.238
1440.2000, -80.549
1440.4000, -78.921
1440.6000, -80.051
1440.8000, -80.412
1441.0000, -81.580
1441.2000, -79.989
1441.4000, -79.671
1441.6000, -82.494
1441.8000, -81.405
1442.0000, -79.156
1442.2000, -80.284
1442.4000, -79.078
1442.6000, -81.791
1442.8000, -80.007
1443.0000, -80.881
1443.2000, -78.347
1443.4000, -80.102
1443.6000, -82.870
1443.8000, -81.291
1444.0000, -79.421
1444.2000, -79.985
1444.4000, -79.577
1444.6000, -79.833
1444.8000, -79.368
1445.0000, -80.654
1445.2000, -82.353
1445.4000, -82.635
1445.6000, -80.074
1445.8000, -80.929
1446.0000, -82.877
1446.2000, -81.354
1446.4000, -79.353
1446.6000, -79.601
1446.8000, -80.242
1447.0000, -78.452
1447.2000, -81.362
1447.4000, -82.047
1447.6000, -81.817
1447.8000, -79.125
1448.0000, -79.446
1448.2000, -79.140
1448.4000, -81.654
1448.6000, -80.698
1448.8000, -80.134
1449.0000, -82.401
1449.2000, -80.588
1449.4000, -80.509
1449.6000, -82.821
1449.8000, -80.461
1450.0000, -79.704
1450.2000, -80.963
1450.4000, -82.643
1450.6000, -83.880
1450.8000, -79.030
1451.0000, -84.574
1451.2000, -79.199
1451.4000, -83.624
1451.6000, -81.107
1451.8000, -80.535
1452.0000, -79.780
1452.2000, -81.173
1452.4000, -81.115
1452.6000, -78.517
1452.8000, -78.937
1453.0000, -80.649
1453.2000, -81.027
1453.4000, -83.078
1453.6000, -86.205
1453.8000, -79.634
1454.0000, -79.730
1454.2000, -80.165
1454.4000, -81.685
1454.6000, -82.653
1454.8000, -81.511
1455.0000, -79.209
1455.2000, -81.412
1455.4000, -82.739
1455.6000, -79.671
1455.8000, -83.850
1456.0000, -80.666
1456.2000, -82.274
1456.4000, -81.806
1456.6000,-210.000
1456.8000, -82.604
1457.0000, -80.651
1457.2000, -81.264
1457.4000, -83.610
1457.6000, -82.332
1457.8000, -82.301
1458.0000, -80.876
1458.2000, -85.157
1458.4000, -81.353
1458.6000, -80.398
1458.8000, -81.187
1459.0000, -83.521
1459.2000, -79.890
1459.4000, -79.920
1459.6000, -79.397
1459.8000, -81.382
1460.0000, -79.642
1460.2000, -80.674
1460.4000, -83.127
1460.6000, -79.362
1460.8000, -80.498
1461.0000, -81.073
1461.2000, -82.147
1461.4000, -82.903
1461.6000, -80.794
1461.8000, -80.021
1462.0000, -85.967
1462.2000, -82.181
1462.4000, -82.256
1462.6000, -82.101
1462.8000, -80.705
1463.0000, -81.780
1463.2000, -87.491
1463.4000, -82.560
1463.6000, -83.528
1463.8000, -81.023
1464.0000, -80.039
1464.2000, -80.133
1464.4000, -82.778
1464.6000, -82.758
1464.8000, -82.251
1465.0000, -82.357
1465.2000, -83.332
1465.4000, -80.700
1465.6000, -79.788
1465.8000, -80.735
1466.0000, -80.785
1466.2000, -83.860
1466.4000, -82.072
1466.6000, -81.425
1466.8000, -84.071
1467.0000, -80.766
1467.2000, -83.147
1467.4000, -80.725
1467.6000, -82.597
1467.8000, -85.130
1468.0000, -80.564
1468.2000, -85.902
1468.4000, -82.910
1468.6000, -81.615
1468.8000, -81.116
1469.0000, -81.743
1469.2000, -82.513
1469.4000,-210.000
1469.6000, -85.661
1469.8000,-210.000
1470.0000, -80.786
1470.2000, -80.091
1470.4000, -82.672
1470.6000, -81.636
1470.8000, -80.782
1471.0000, -81.834
1471.2000, -78.805
1471.4000, -82.942
1471.6000, -80.575
1471.8000, -81.570
1472.0000, -80.182
1472.2000, -80.509
1472.4000, -86.501
1472.6000, -84.032
1472.8000, -82.077
1473.0000, -80.602
1473.2000, -82.035
1473.4000, -92.266
1473.6000, -87.934
1473.8000, -81.429
1474.0000, -82.414
1474.2000, -79.420
1474.4000, -81.185
1474.6000, -79.822
1474.8000, -80.621
1475.0000, -85.475
1475.2000, -83.299
1475.4000, -81.603
1475.6000, -81.123
1475.8000, -81.465
1476.0000, -80.835
1476.2000, -82.223
1476.4000, -82.817
1476.6000,-210.000
1476.8000, -81.712
1477.0000, -80.849
1477.2000, -80.469
1477.4000, -80.964
1477.6000, -82.286
1477.8000, -83.237
1478.0000, -82.936
1478.2000, -89.642
1478.4000, -84.211
1478.6000, -82.889
1478.8000, -82.091
1479.0000, -84.218
1479.2000, -81.142
1479.4000, -80.205
1479.6000, -83.753
1479.8000, -84.649
1480.0000, -83.763
1480.2000, -84.606
1480.4000, -84.056
1480.6000, -84.072
1480.8000, -88.321
1481.0000, -79.464
1481.2000, -81.493
1481.4000, -80.850
1481.6000, -81.140
1481.8000, -84.118
1482.0000, -83.026
1482.2000, -80.663
1482.4000, -81.525
1482.6000, -90.875
1482.8000, -85.407
1483.0000, -81.624
1483.2000, -82.237
1483.4000, -84.940
1483.6000, -86.054
1483.8000, -84.369
1484.0000, -83.780
1484.2000, -86.134
1484.4000, -81.415
1484.6000, -80.924
1484.8000, -81.688
1485.0000, -82.198
1485.2000, -81.160
1485.4000, -87.053
1485.6000, -81.273
1485.8000, -83.538
1486.0000, -82.877
1486.2000, -84.948
1486.4000, -83.967
1486.6000, -82.208
1486.8000, -84.515
1487.0000, -82.962
1487.2000, -83.253
1487.4000, -81.504
1487.6000, -97.147
1487.8000, -83.193
1488.0000, -82.664
1488.2000, -88.462
1488.4000, -82.124
1488.6000, -84.593
1488.8000,-109.974
1489.0000, -93.533
1489.2000, -83.034
1489.4000, -82.057
1489.6000, -82.531
1489.8000, -85.187
1490.0000, -82.649
1490.2000, -82.832
1490.4000, -82.144
1490.6000,-210.000
1490.8000, -87.030
1491.0000, -82.008
1491.2000, -83.756
1491.4000, -83.915
1491.6000, -82.296
1491.8000, -80.702
1492.0000, -82.083
1492.2000, -83.311
1492.4000, -81.729
1492.6000, -87.939
1492.8000, -82.234
1493.0000, -83.271
1493.2000,-210.000
1493.4000, -80.926
1493.6000, -81.620
1493.8000, -82.712
1494.0000,-210.000
1494.2000, -81.692
1494.4000, -86.129
1494.6000, -85.818
1494.8000, -85.814
1495.0000, -84.805
1495.2000, -85.101
1495.4000, -84.171
1495.6000, -82.740
1495.8000, -89.398
1496.0000, -84.382
1496.2000, -82.132
1496.4000, -83.082
1496.6000, -85.695
1496.8000, -90.795
1497.0000, -81.199
1497.2000, -80.591
1497.4000, -83.244
1497.6000, -84.442
1497.8000, -86.236
1498.0000, -81.519
1498.2000, -83.563
1498.4000, -81.027
1498.6000,-210.000
1498.8000, -97.943
1499.0000, -81.330
1499.2000, -86.649
1499.4000, -81.875
1499.6000, -86.684
1499.8000, -85.458
1500.0000, -85.963
1500.2000, -85.222
1500.4000, -82.571
1500.6000, -83.722
1500.8000, -81.411
1501.0000, -87.144
1501.2000, -81.325
1501.4000, -86.683
1501.6000, -88.644
1501.8000, -82.453
1502.0000, -88.128
1502.2000, -83.691
1502.4000, -80.709
1502.6000, -82.673
1502.8000, -81.758
1503.0000, -84.474
1503.2000, -87.624
1503.4000, -82.592
1503.6000, -85.613
1503.8000, -85.143
1504.0000,-210.000
1504.2000, -92.092
1504.4000, -85.545
1504.6000,-210.000
1504.8000, -82.690
1505.0000, -83.195
1505.2000, -85.542
1505.4000, -85.106
1505.6000, -84.668
1505.8000, -83.499
1506.0000, -87.585
1506.2000, -84.332
1506.4000, -83.297
1506.6000, -83.010
1506.8000, -83.674
1507.0000, -83.287
1507.2000,-210.000
1507.4000, -85.315
1507.6000,-210.000
1507.8000, -87.156
1508.0000, -83.048
1508.2000, -83.025
1508.4000, -86.698
1508.6000, -89.662
1508.8000, -92.300
1509.0000, -82.740
1509.2000, -84.808
1509.4000, -86.581
1509.6000, -86.941
1509.8000, -89.029
1510.0000,-210.000
1510.2000,-210.000
1510.4000,-210.000
1510.6000, -80.855
1510.8000, -84.931
1511.0000,-210.000
1511.2000, -84.706
1511.4000, -83.821
1511.6000, -84.228
1511.8000, -88.281
1512.0000, -83.351
1512.2000, -89.374
1512.4000, -85.312
1512.6000, -84.612
1512.8000, -81.579
1513.0000, -82.460
1513.2000, -87.465
1513.4000, -84.123
1513.6000,-210.000
1513.8000, -91.084
1514.0000, -82.326
1514.2000, -83.897
1514.4000, -81.552
1514.6000,-210.000
1514.8000, -85.557
1515.0000, -85.626
1515.2000, -83.655
1515.4000, -87.782
1515.6000, -85.084
1515.8000, -83.740
1516.0000, -95.394
1516.2000, -90.742
1516.4000, -84.045
1516.6000, -84.972
1516.8000, -88.272
1517.0000, -80.516
1517.2000, -82.442
1517.4000,-210.000
1517.6000, -84.867
1517.8000, -82.472
1518.0000, -85.724
1518.2000, -85.355
1518.4000, -79.583
1518.6000, -88.592
1518.8000,-210.000
1519.0000, -86.603
1519.2000,-210.000
1519.4000,-210.000
1519.6000, -90.295
1519.8000, -82.828
1520.0000, -82.804
1520.2000, -85.322
1520.4000, -85.088
1520.6000, -87.290
1520.8000, -87.503
1521.0000, -84.319
1521.2000, -81.615
1521.4000, -85.491
1521.6000,-210.000
1521.8000, -82.584
1522.0000, -85.549
1522.2000, -83.639
1522.4000, -83.029
1522.6000, -84.005
1522.8000, -81.580
1523.0000, -85.407
1523.2000, -98.726
1523.4000, -88.976
1523.6000, -85.142
1523.8000, -82.597
1524.0000, -85.114
1524.2000, -93.433
1524.4000, -87.660
1524.6000, -96.070
1524.8000, -97.358
1525.0000, -85.271
1525.2000, -83.212
1525.4000, -86.880
1525.6000, -85.071
1525.8000, -90.803
1526.0000, -83.213
1526.2000, -82.663
1526.4000, -83.032
1526.6000, -84.881
1526.8000, -82.628
1527.0000, -85.207
1527.2000, -91.272
1527.4000,-210.000
1527.6000, -84.507
1527.8000, -89.973
1528.0000, -85.621
1528.2000, -86.031
1528.4000, -85.417
1528.6000, -90.524
1528.8000, -86.183
1529.0000, -84.482
1529.2000, -84.790
1529.4000, -92.954
1529.6000, -85.785
1529.8000, -82.996
1530.0000, -85.176
1530.2000, -84.195
1530.4000, -86.325
1530.6000, -88.824
1530.8000, -82.878
1531.0000,-210.000
1531.2000, -85.823
1531.4000,-210.000
1531.6000, -86.377
1531.8000, -82.962
1532.0000, -87.945
1532.2000,-210.000
1532.4000, -82.075
1532.6000, -86.239
1532.8000, -87.865
1533.0000,-210.000
1533.2000, -84.900
1533.4000, -87.192
1533.6000, -84.263
1533.8000, -81.258
1534.0000,-210.000
1534.2000,-210.000
1534.4000, -92.859
1534.6000, -81.110
1534.8000, -89.820
1535.0000, -82.579
1535.2000,-210.000
1535.4000, -87.843
1535.6000, -88.310
1535.8000, -85.790
1536.0000, -85.637
1536.2000,-210.000
1536.4000, -83.799
1536.6000, -86.763
1536.8000, -81.697
1537.0000,-210.000
1537.2000, -84.256
1537.4000, -86.479
1537.6000, -84.014
1537.8000, -90.535
1538.0000, -93.280
1538.2000,-210.000
1538.4000, -95.444
1538.6000, -86.339
1538.8000, -85.694
1539.0000,-210.000
1539.2000, -85.997
1539.4000, -87.825
1539.6000, -86.305
1539.8000, -84.584
1540.0000, -88.170
1540.2000, -91.391
1540.4000, -85.072
1540.6000, -85.945
1540.8000, -84.693
1541.0000, -94.554
1541.2000, -97.913
1541.4000, -87.146
1541.6000, -81.716
1541.8000, -84.979
1542.0000, -90.141
1542.2000,-210.000
1542.4000, -88.865
1542.6000, -86.308
1542.8000, -83.160
1543.0000, -91.851
1543.2000, -87.103
1543.4000,-210.000
1543.6000, -82.269
1543.8000, -91.364
1544.0000,-210.000
1544.2000,-210.000
1544.4000, -85.565
1544.6000, -81.952
1544.8000, -82.419
1545.0000, -87.283
1545.2000, -91.477
1545.4000,-210.000
1545.6000, -86.805
1545.8000, -82.739
1546.0000, -84.861
1546.2000, -87.472
1546.4000, -93.685
1546.6000, -83.800
1546.8000, -83.774
1547.0000, -83.767
1547.2000,-210.000
1547.4000, -87.377
1547.6000, -85.675
1547.8000, -87.052
1548.0000, -85.498
1548.2000, -89.054
1548.4000,-210.000
1548.6000, -85.742
1548.8000, -83.863
1549.0000, -83.021
1549.2000, -88.490
1549.4000, -85.662
1549.6000, -89.415
1549.8000,-210.000
1550.0000,-210.000
1550.2000, -95.863
1550.4000,-210.000
1550.6000,-210.000
1550.8000, -82.132
1551.0000, -90.927
1551.2000, -87.757
1551.4000, -84.708
1551.6000,-210.000
1551.8000, -82.115
1552.0000,-210.000
1552.2000, -84.243
1552.4000,-210.000
1552.6000, -85.533
1552.8000, -84.656
1553.0000, -83.544
1553.2000, -91.850
1553.4000, -85.214
1553.6000,-210.000
1553.8000, -90.479
1554.0000,-210.000
1554.2000,-210.000
1554.4000, -83.864
1554.6000, -82.936
1554.8000, -83.280
1555.0000,-210.000
1555.2000,-210.000
1555.4000, -86.088
1555.6000, -83.615
1555.8000, -81.469
1556.0000,-210.000
1556.2000, -85.204
1556.4000,-210.000
1556.6000, -93.210
1556.8000,-210.000
1557.0000,-210.000
1557.2000, -86.004
1557.4000, -87.433
1557.6000, -90.465
1557.8000,-210.000
1558.0000, -87.178
1558.2000, -83.637
1558.4000, -84.899
1558.6000,-210.000
1558.8000, -81.706
1559.0000, -88.245
1559.2000, -87.671
1559.4000, -83.788
1559.6000, -86.697
1559.8000,-210.000
1560.0000, -87.757
1560.2000, -87.729
1560.4000, -92.171
1560.6000, -88.659
1560.8000, -85.633
1561.0000,-210.000
1561.2000,-210.000
1561.4000, -83.156
1561.6000, -85.700
1561.8000, -84.559
1562.0000,-210.000
1562.2000,-210.000
1562.4000, -86.561
1562.6000, -84.522
1562.8000, -90.294
1563.0000,-210.000
1563.2000, -84.637
1563.4000, -87.649
1563.6000, -81.237
1563.8000,-210.000
1564.0000, -94.762
1564.2000,-210.000
1564.4000, -83.819
1564.6000, -87.864
1564.8000, -85.931
1565.0000, -86.333
1565.2000, -87.250
1565.4000, -84.758
1565.6000,-210.000
1565.8000, -87.357
1566.0000,-210.000
1566.2000,-210.000
1566.4000,-210.000
1566.6000, -82.435
1566.8000, -87.252
1567.0000, -81.770
1567.2000, -86.164
1567.4000,-210.000
1567.6000, -86.541
1567.8000, -87.266
1568.0000,-210.000
1568.2000, -85.738
1568.4000, -91.414
1568.6000, -85.939
1568.8000,-210.000
1569.0000,-210.000
1569.2000, -85.308
1569.4000, -86.104
1569.6000, -82.772
1569.8000,-210.000
1570.0000,-210.000
1570.2000,-210.000
1570.4000, -89.210
1570.6000, -88.578
1570.8000, -91.658
1571.0000,-210.000
1571.2000, -81.579
1571.4000, -86.990
1571.6000,-210.000
1571.8000, -89.093
1572.0000,-210.000
1572.2000, -84.634
1572.4000, -90.419
1572.6000, -86.759
1572.8000, -85.990
1573.0000, -83.738
1573.2000, -85.888
1573.4000, -92.937
1573.6000, -85.253
1573.8000,-210.000
1574.0000, -90.948
1574.2000, -82.881
1574.4000,-210.000
1574.6000,-210.000
1574.8000,-210.000
1575.0000,-210.000
1575.2000, -87.515
1575.4000, -84.500
1575.6000, -89.083
1575.8000, -86.329
1576.0000,-210.000
1576.2000,-210.000
1576.4000,-210.000
1576.6000, -97.535
1576.8000, -89.017
1577.0000,-210.000
1577.2000, -84.547
1577.4000, -90.978
1577.6000, -83.732
1577.8000,-210.000
1578.0000, -97.585
1578.2000, -87.034
1578.4000,-210.000
1578.6000,-210.000
1578.8000, -88.000
1579.0000,-210.000
1579.2000, -91.939
1579.4000, -84.932
1579.6000, -83.273
1579.8000, -84.090
1580.0000, -86.089
1580.2000,-210.000
1580.4000, -83.568
1580.6000,-210.000
1580.8000, -81.979
1581.0000, -85.041
1581.2000,-210.000
1581.4000,-210.000
1581.6000, -83.205
1581.8000, -88.250
1582.0000, -86.742
1582.2000,-210.000
1582.4000, -88.237
1582.6000,-210.000
1582.8000,-210.000
1583.0000, -86.229
1583.2000, -86.448
1583.4000, -97.427
1583.6000,-210.000
1583.8000,-210.000
1584.0000, -90.434
1584.2000,-210.000
1584.4000, -82.409
1584.6000, -85.025
1584.8000, -84.214
1585.0000,-210.000
1585.2000,-210.000
1585.4000,-210.000
1585.6000, -98.279
1585.8000, -83.485
1586.0000, -88.881
1586.2000, -85.837
1586.4000,-210.000
1586.6000, -96.345
1586.8000,-101.277
1587.0000, -88.139
1587.2000, -87.487
1587.4000,-210.000
1587.6000, -89.273
1587.8000, -91.457
1588.0000, -86.601
1588.2000,-210.000
1588.4000,-210.000
1588.6000, -95.707
1588.8000, -83.313
1589.0000,-210.000
1589.2000, -85.091
1589.4000, -87.246
1589.6000, -88.174
1589.8000, -86.282
1590.0000, -84.039
1590.2000,-210.000
1590.4000,-210.000
1590.6000, -88.281
1590.8000,-210.000
1591.0000,-210.000
1591.2000, -82.229
1591.4000, -97.618
1591.6000, -88.988
1591.8000,-210.000
1592.0000, -93.214
1592.2000,-210.000
1592.4000, -85.791
1592.6000, -80.688
1592.8000, -90.328
1593.0000,-210.000
1593.2000, -83.650
1593.4000,-210.000
1593.6000, -83.925
1593.8000,-210.000
1594.0000,-210.000
1594.2000, -83.226
1594.4000, -95.329
1594.6000, -93.737
1594.8000,-210.000
1595.0000,-210.000
1595.2000, -86.342
1595.4000,-210.000
1595.6000, -83.378
1595.8000,-210.000
1596.0000, -87.432
1596.2000,-210.000
1596.4000,-210.000
1596.6000,-210.000
1596.8000,-210.000
1597.0000, -85.532
1597.2000,-210.000
1597.4000,-210.000
1597.6000, -85.973
1597.8000,-210.000
1598.0000, -82.128
1598.2000,-210.000
1598.4000, -82.234
1598.6000, -91.866
1598.8000,-210.000
1599.0000,-210.000
1599.2000,-210.000
1599.4000, -90.436
1599.6000, -83.549
1599.8000,-210.000
1600.0000, -83.081
1600.2000, -85.714
1600.4000, -87.837
1600.6000, -86.966
1600.8000, -92.168
1601.0000,-210.000
1601.2000,-210.000
1601.4000, -87.834
1601.6000,-210.000
1601.8000,-210.000
1602.0000,-210.000
1602.2000, -83.491
1602.4000, -97.049
1602.6000,-210.000
1602.8000, -90.418
1603.0000,-210.000
1603.2000,-210.000
1603.4000, -89.510
1603.6000, -93.895
1603.8000, -95.596
1604.0000, -85.155
1604.2000, -87.011
1604.4000, -88.614
1604.6000, -85.495
1604.8000,-210.000
1605.0000,-210.000
1605.2000, -86.945
1605.4000,-210.000
1605.6000, -83.452
1605.8000,-210.000
1606.0000,-210.000
1606.2000,-210.000
1606.4000,-210.000
1606.6000,-210.000
1606.8000, -85.106
1607.0000,-210.000
1607.2000, -89.793
1607.4000,-101.962
1607.6000,-210.000
1607.8000, -97.438
1608.0000,-210.000
1608.2000, -85.380
1608.4000, -84.589
1608.6000,-210.000
1608.8000,-210.000
1609.0000, -88.329
1609.2000, -84.435
1609.4000,-210.000
1609.6000, -86.792
1609.8000,-210.000
1610.0000, -83.988
1610.2000,-210.000
1610.4000,-210.000
1610.6000, -96.046
1610.8000, -88.852
1611.0000, -82.236
1611.2000,-210.000
1611.4000, -86.391
1611.6000,-210.000
1611.8000,-210.000
1612.0000,-210.000
1612.2000,-210.000
1612.4000, -90.152
1612.6000,-210.000
1612.8000,-210.000
1613.0000,-210.000
1613.2000, -85.472
1613.4000, -92.947
1613.6000, -84.805
1613.8000,-210.000
1614.0000, -86.330
1614.2000, -81.986
1614.4000,-210.000
1614.6000, -83.146
1614.8000,-210.000
1615.0000, -90.762
1615.2000, -89.205
1615.4000, -83.681
1615.6000,-210.000
1615.8000, -94.864
1616.0000,-210.000
1616.2000, -85.800
1616.4000, -90.193
1616.6000, -84.864
1616.8000, -91.010
1617.0000, -85.341
1617.2000, -98.033
1617.4000,-210.000
1617.6000, -90.142
1617.8000, -82.866
1618.0000,-210.000
1618.2000,-210.000
1618.4000, -83.791
1618.6000,-210.000
1618.8000,-210.000
1619.0000,-210.000
1619.2000, -83.977
1619.4000, -83.728
1619.6000, -82.242
1619.8000, -88.795
1620.0000,-210.000
1620.2000, -90.444
1620.4000,-210.000
1620.6000, -81.597
1620.8000, -96.048
1621.0000,-210.000
1621.2000,-210.000
1621.4000, -83.642
1621.6000,-210.000
1621.8000,-210.000
1622.0000,-210.000
1622.2000, -99.575
1622.4000, -92.097
1622.6000,-210.000
1622.8000, -87.149
1623.0000, -92.042
1623.2000,-210.000
1623.4000, -87.235
1623.6000,-210.000
1623.8000, -91.678
1624.0000,-210.000
1624.2000, -92.792
1624.4000,-210.000
1624.6000,-210.000
1624.8000, -82.896
1625.0000,-210.000
1625.2000, -85.834
1625.4000, -89.564
1625.6000,-210.000
1625.8000, -85.467
1626.0000,-210.000
1626.2000, -84.824
1626.4000,-210.000
1626.6000,-210.000
1626.8000, -89.009
1627.0000,-210.000
1627.2000,-210.000
1627.4000, -91.969
1627.6000,-210.000
1627.8000,-210.000
1628.0000, -86.059
1628.2000, -85.703
1628.4000,-210.000
1628.6000,-112.954
1628.8000,-210.000
1629.0000, -82.233
1629.2000, -94.179
1629.4000,-210.000
1629.6000,-210.000
1629.8000, -83.882
1630.0000,-210.000
1630.2000, -86.162
1630.4000,-210.000
1630.6000,-210.000
1630.8000, -84.388
1631.0000, -84.135
1631.2000,-210.000
1631.4000,-210.000
1631.6000,-210.000
1631.8000,-210.000
1632.0000,-210.000
1632.2000,-210.000
1632.4000, -88.805
1632.6000,-210.000
1632.8000,-210.000
1633.0000, -86.242
1633.2000, -94.157
1633.4000, -82.367
1633.6000, -86.488
1633.8000, -86.880
1634.0000,-210.000
1634.2000,-210.000
1634.4000, -89.095
1634.6000,-210.000
1634.8000,-210.000
1635.0000,-210.000
1635.2000, -87.493
1635.4000,-210.000
1635.6000, -90.303
1635.8000, -84.268
1636.0000,-210.000
1636.2000, -90.823
1636.4000, -85.330
1636.6000, -90.453
1636.8000, -86.401
1637.0000,-210.000
1637.2000, -91.190
1637.4000, -87.792
1637.6000,-210.000
1637.8000,-210.000
1638.0000, -90.276
1638.2000,-210.000
1638.4000, -87.845
1638.6000, -87.323
1638.8000,-210.000
1639.0000, -85.946
1639.2000, -89.724
1639.4000, -87.603
1639.6000,-210.000
1639.8000, -84.814
1640.0000, -87.318
1640.2000,-210.000
1640.4000, -96.009
1640.6000, -87.867
1640.8000,-210.000
1641.0000, -90.148
1641.2000,-210.000
1641.4000, -91.679
1641.6000,-210.000
1641.8000, -89.242
1642.0000,-210.000
1642.2000,-210.000
1642.4000, -83.827
1642.6000, -84.680
1642.8000,-210.000
1643.0000,-210.000
1643.2000, -92.499
1643.4000, -84.547
1643.6000,-210.000
1643.8000,-210.000
1644.0000, -92.169
1644.2000, -82.998
1644.4000, -84.227
1644.6000, -86.806
1644.8000, -84.620
1645.0000, -86.212
1645.2000, -91.178
1645.4000,-210.000
1645.6000,-210.000
1645.8000,-210.000
1646.0000,-210.000
1646.2000,-210.000
1646.4000, -86.900
1646.6000, -88.146
1646.8000, -84.437
1647.0000, -83.872
1647.2000, -86.337
1647.4000, -84.874
1647.6000,-210.000
1647.8000, -83.627
1648.0000, -86.035
1648.2000,-210.000
1648.4000, -86.900
1648.6000, -87.118
1648.8000, -86.980
1649.0000, -99.994
1649.2000, -85.631
1649.4000, -82.021
1649.6000, -86.775
1649.8000,-210.000
1650.0000, -86.958
1650.2000,-210.000
1650.4000, -82.774
1650.6000,-210.000
1650.8000, -84.440
1651.0000, -95.639
1651.2000, -85.348
1651.4000, -84.442
1651.6000, -92.463
1651.8000,-210.000
1652.0000, -82.477
1652.2000,-210.000
1652.4000, -81.292
1652.6000, -88.802
1652.8000,-210.000
1653.0000, -93.362
1653.2000,-210.000
1653.4000,-210.000
1653.6000, -82.393
1653.8000, -83.934
1654.0000,-210.000
1654.2000,-210.000
1654.4000,-210.000
1654.6000,-210.000
1654.8000, -82.721
1655.0000,-210.000
1655.2000,-210.000
1655.4000,-210.000
1655.6000,-210.000
1655.8000,-210.000
1656.0000, -85.321
1656.2000, -83.786
1656.4000, -88.288
1656.6000, -82.764
1656.8000,-210.000
1657.0000,-115.437
1657.2000, -84.613
1657.4000, -85.618
1657.6000,-210.000
1657.8000,-210.000
1658.0000,-210.000
1658.2000,-210.000
1658.4000,-210.000
1658.6000, -88.432
1658.8000,-210.000
1659.0000,-210.000
1659.2000, -93.295
1659.4000,-210.000
1659.6000, -88.826
1659.8000, -92.757
1660.0000,-210.000
1660.2000,-210.000
1660.4000, -87.834
1660.6000, -84.528
1660.8000, -84.986
1661.0000,-210.000
1661.2000, -85.261
1661.4000, -83.802
1661.6000, -85.118
1661.8000,-210.000
1662.0000,-210.000
1662.2000,-210.000
1662.4000, -81.099
1662.6000, -88.231
1662.8000, -93.362
1663.0000, -83.941
1663.2000,-210.000
1663.4000,-210.000
1663.6000, -92.708
1663.8000, -88.556
1664.0000, -84.491
1664.2000, -84.353
1664.4000,-210.000
1664.6000,-210.000
1664.8000,-210.000
1665.0000,-210.000
1665.2000,-210.000
1665.4000, -89.519
1665.6000, -82.674
1665.8000,-210.000
1666.0000,-210.000
1666.2000, -80.860
1666.4000, -84.556
1666.6000,-210.000
1666.8000, -84.750
1667.0000, -84.248
1667.2000, -82.984
1667.4000,-210.000
1667.6000, -90.273
1667.8000,-210.000
1668.0000, -83.380
1668.2000, -95.499
1668.4000, -94.311
1668.6000,-210.000
1668.8000, -93.901
1669.0000, -88.024
1669.2000,-210.000
1669.4000, -83.038
1669.6000,-210.000
1669.8000,-210.000
1670.0000, -82.557
1670.2000, -83.096
1670.4000,-210.000
1670.6000,-210.000
1670.8000,-210.000
1671.0000, -85.782
1671.2000,-210.000
1671.4000,-210.000
1671.6000,-210.000
1671.8000,-210.000
1672.0000, -83.336
1672.2000,-210.000
1672.4000, -98.928
1672.6000, -82.931
1672.8000,-210.000
1673.0000,-210.000
1673.2000,-210.000
1673.4000, -80.765
1673.6000, -85.004
1673.8000,-210.000
1674.0000,-210.000
1674.2000, -81.710
1674.4000,-210.000
1674.6000, -81.996
1674.8000,-210.000
1675.0000, -83.007
1675.2000,-210.000
1675.4000, -78.759
1675.6000,-210.000
1675.8000,-210.000
1676.0000,-210.000
1676.2000,-210.000
1676.4000,-210.000
1676.6000,-210.000
1676.8000, -81.518
1677.0000, -79.356
1677.2000,-210.000
1677.4000, -86.845
1677.6000,-210.000
1677.8000,-210.000
1678.0000,-210.000
1678.2000,-210.000
1678.4000,-210.000
1678.6000,-210.000
1678.8000,-210.000
1679.0000,-210.000
1679.2000,-210.000
1679.4000,-210.000
1679.6000, -78.698
1679.8000,-210.000
1680.0000, -92.020
1680.2000, -80.346
1680.4000, -75.773
1680.6000, -80.356
1680.8000, -83.129
1681.0000,-210.000
1681.2000,-210.000
1681.4000,-210.000
1681.6000,-210.000
1681.8000,-210.000
1682.0000,-210.000
1682.2000,-210.000
1682.4000, -83.930
1682.6000,-210.000
1682.8000,-210.000
1683.0000,-210.000
1683.2000,-210.000
1683.4000,-210.000
1683.6000, -80.536
1683.8000, -82.628
1684.0000, -81.511
1684.2000,-210.000
1684.4000,-210.000
1684.6000,-210.000
1684.8000, -79.175
1685.0000, -92.434
1685.2000,-210.000
1685.4000, -77.969
1685.6000, -99.048
1685.8000, -78.533
1686.0000, -82.067
1686.2000,-210.000
1686.4000,-210.000
1686.6000,-210.000
1686.8000, -75.049
1687.0000,-210.000
1687.2000,-210.000
1687.4000,-210.000
1687.6000, -79.706
1687.8000,-210.000
1688.0000, -78.272
1688.2000,-210.000
1688.4000,-210.000
1688.6000, -78.090
1688.8000, -78.871
1689.0000,-210.000
1689.2000, -77.855
1689.4000,-210.000
1689.6000, -76.054
1689.8000,-210.000
1690.0000, -76.021
1690.2000,-210.000
1690.4000,-210.000
1690.6000,-210.000
1690.8000,-210.000
1691.0000,-210.000
1691.2000, -78.549
1691.4000,-210.000
1691.6000,-210.000
1691.8000, -77.113
1692.0000, -77.396
1692.2000, -79.885
1692.4000, -76.730
1692.6000, -78.025
1692.8000,-210.000
1693.0000,-210.000
1693.2000, -78.000
1693.4000, -80.983
1693.6000,-210.000
1693.8000,-210.000
1694.0000,-210.000
1694.2000,-210.000
1694.4000,-210.000
1694.6000,-210.000
1694.8000,-210.000
1695.0000,-210.000
1695.2000, -76.882
1695.4000, -73.375
1695.6000, -84.945
1695.8000,-210.000
1696.0000, -77.131
1696.2000, -81.017
1696.4000, -86.432
1696.6000,-210.000
1696.8000, -83.526
1697.0000, -80.180
1697.2000,-210.000
1697.4000, -76.887
1697.6000,-210.000
1697.8000,-210.000
1698.0000,-210.000
1698.2000, -73.937
1698.4000, -82.623
1698.6000,-210.000
1698.8000,-210.000
1699.0000, -88.653
1699.2000, -83.500
1699.4000,-210.000
1699.6000, -84.880
1699.8000,-210.000
1700.0000,-210.000
