74CSV  	
// AQ6374 OPTICAL SPECTRUM ANALYZER //                  
35
"CTRWL",1125.000000
"SPAN",1150.000000
"START WL", 550.000000
"STOP WL",1700.000000
"WLFREQ", 0
"REFL",-56.6
"LSCL", 5.0
"RESLN",1.000
"AVG",   1
"SMPLAUTO",      1
"SMPL",       5751
"SMPLINTVL",0.2000
"HIGH1"
"MEAS"
"LSUNT",0
"NMSKH","OFF"
"RESCOR",0
"SMOOTH",0
"MEASWL",1
"SWPSPD",0
"MODELNAME","AQ6374"
"CHGPT",        102
"RESCAL0_0",       9996
"RESCAL0_1",       -866
"RESCAL0_2",    1341521
"RESCAL1_0",      10053
"RESCAL1_1",          0
"RESCAL1_2",          0
"CORESIZE", 0






"[TRACE DATA]"
 550.0000, -70.512
 550.2000,-210.000
 550.4000, -76.106
 550.6000, -80.666
 550.8000,-210.000
 551.0000, -70.887
 551.2000,-210.000
 551.4000,-210.000
 551.6000, -83.379
 551.8000, -74.665
 552.0000, -67.007
 552.2000, -67.857
 552.4000, -77.449
 552.6000, -81.230
 552.8000,-210.000
 553.0000, -98.321
 553.2000,-210.000
 553.4000,-210.000
 553.6000,-210.000
 553.8000, -71.153
 554.0000,-210.000
 554.2000,-210.000
 554.4000,-210.000
 554.6000, -72.950
 554.8000, -72.465
 555.0000, -71.035
 555.2000,-210.000
 555.4000,-210.000
 555.6000,-210.000
 555.8000,-210.000
 556.0000,-210.000
 556.2000,-210.000
 556.4000, -78.760
 556.6000,-210.000
 556.8000,-210.000
 557.0000, -73.410
 557.2000,-210.000
 557.4000,-210.000
 557.6000,-210.000
 557.8000, -77.829
 558.0000,-210.000
 558.2000,-210.000
 558.4000, -81.965
 558.6000,-210.000
 558.8000, -82.322
 559.0000,-210.000
 559.2000,-210.000
 559.4000, -72.118
 559.6000,-210.000
 559.8000, -75.264
 560.0000, -69.444
 560.2000,-210.000
 560.4000,-210.000
 560.6000, -76.860
 560.8000,-210.000
 561.0000, -74.196
 561.2000,-210.000
 561.4000, -77.489
 561.6000, -70.618
 561.8000,-210.000
 562.0000,-210.000
 562.2000, -81.289
 562.4000, -80.816
 562.6000,-210.000
 562.8000,-210.000
 563.0000, -70.736
 563.2000, -72.151
 563.4000, -67.342
 563.6000,-210.000
 563.8000, -74.670
 564.0000, -76.732
 564.2000,-210.000
 564.4000,-210.000
 564.6000,-210.000
 564.8000,-210.000
 565.0000,-210.000
 565.2000,-210.000
 565.4000,-210.000
 565.6000,-210.000
 565.8000,-210.000
 566.0000, -69.850
 566.2000, -73.863
 566.4000,-210.000
 566.6000,-210.000
 566.8000, -66.215
 567.0000,-210.000
 567.2000,-210.000
 567.4000, -82.062
 567.6000,-210.000
 567.8000, -68.202
 568.0000, -73.369
 568.2000,-210.000
 568.4000,-210.000
 568.6000, -75.494
 568.8000,-210.000
 569.0000,-210.000
 569.2000,-210.000
 569.4000, -72.894
 569.6000,-210.000
 569.8000, -77.788
 570.0000,-210.000
 570.2000,-210.000
 570.4000,-210.000
 570.6000, -78.665
 570.8000, -71.501
 571.0000, -74.071
 571.2000,-210.000
 571.4000,-210.000
 571.6000, -70.260
 571.8000,-210.000
 572.0000,-210.000
 572.2000, -74.141
 572.4000,-210.000
 572.6000,-210.000
 572.8000, -70.013
 573.0000, -78.448
 573.2000, -73.206
 573.4000, -75.569
 573.6000,-210.000
 573.8000, -83.371
 574.0000,-210.000
 574.2000,-210.000
 574.4000, -70.875
 574.6000,-210.000
 574.8000, -78.956
 575.0000, -69.045
 575.2000, -75.469
 575.4000, -76.423
 575.6000,-210.000
 575.8000, -80.029
 576.0000, -83.826
 576.2000,-210.000
 576.4000, -77.538
 576.6000, -78.441
 576.8000,-210.000
 577.0000,-210.000
 577.2000, -88.084
 577.4000, -72.452
 577.6000, -80.085
 577.8000,-210.000
 578.0000,-210.000
 578.2000,-210.000
 578.4000,-210.000
 578.6000, -74.730
 578.8000, -83.106
 579.0000, -70.972
 579.2000, -76.823
 579.4000,-210.000
 579.6000, -74.819
 579.8000, -73.961
 580.0000,-210.000
 580.2000,-210.000
 580.4000,-210.000
 580.6000, -90.984
 580.8000,-210.000
 581.0000, -78.897
 581.2000,-210.000
 581.4000, -72.069
 581.6000,-210.000
 581.8000, -79.161
 582.0000,-210.000
 582.2000,-210.000
 582.4000,-210.000
 582.6000,-210.000
 582.8000, -73.791
 583.0000,-210.000
 583.2000,-210.000
 583.4000,-210.000
 583.6000,-210.000
 583.8000, -72.507
 584.0000, -76.151
 584.2000, -78.910
 584.4000,-210.000
 584.6000, -74.282
 584.8000,-210.000
 585.0000,-210.000
 585.2000,-210.000
 585.4000,-210.000
 585.6000,-210.000
 585.8000, -74.368
 586.0000, -69.486
 586.2000, -72.148
 586.4000, -73.878
 586.6000, -78.457
 586.8000, -80.740
 587.0000,-210.000
 587.2000,-210.000
 587.4000, -73.159
 587.6000,-210.000
 587.8000,-210.000
 588.0000, -79.054
 588.2000, -88.083
 588.4000,-210.000
 588.6000,-210.000
 588.8000,-210.000
 589.0000,-210.000
 589.2000, -72.532
 589.4000,-210.000
 589.6000,-210.000
 589.8000, -79.852
 590.0000,-210.000
 590.2000, -73.121
 590.4000,-210.000
 590.6000, -77.965
 590.8000,-210.000
 591.0000,-210.000
 591.2000,-210.000
 591.4000, -79.328
 591.6000,-210.000
 591.8000,-210.000
 592.0000,-210.000
 592.2000, -80.821
 592.4000,-210.000
 592.6000,-210.000
 592.8000, -82.249
 593.0000,-210.000
 593.2000, -79.024
 593.4000,-210.000
 593.6000,-210.000
 593.8000, -83.108
 594.0000, -95.111
 594.2000,-210.000
 594.4000, -74.398
 594.6000, -81.940
 594.8000,-210.000
 595.0000,-210.000
 595.2000,-210.000
 595.4000,-210.000
 595.6000, -73.656
 595.8000,-210.000
 596.0000,-210.000
 596.2000, -73.261
 596.4000,-210.000
 596.6000, -77.896
 596.8000, -75.413
 597.0000,-210.000
 597.2000,-210.000
 597.4000, -77.249
 597.6000, -78.531
 597.8000, -80.130
 598.0000, -72.618
 598.2000, -72.056
 598.4000,-210.000
 598.6000,-210.000
 598.8000, -77.335
 599.0000, -76.804
 599.2000, -77.485
 599.4000,-210.000
 599.6000,-210.000
 599.8000,-210.000
 600.0000, -72.543
 600.2000, -72.276
 600.4000, -72.788
 600.6000, -83.037
 600.8000, -77.099
 601.0000, -80.711
 601.2000, -76.391
 601.4000,-210.000
 601.6000,-210.000
 601.8000,-210.000
 602.0000,-210.000
 602.2000, -75.795
 602.4000, -81.657
 602.6000,-210.000
 602.8000, -80.207
 603.0000,-210.000
 603.2000, -71.474
 603.4000, -85.213
 603.6000,-210.000
 603.8000,-210.000
 604.0000,-210.000
 604.2000, -73.264
 604.4000,-210.000
 604.6000,-210.000
 604.8000, -71.980
 605.0000, -88.474
 605.2000, -73.330
 605.4000, -70.801
 605.6000,-210.000
 605.8000,-210.000
 606.0000, -74.511
 606.2000, -75.945
 606.4000, -73.842
 606.6000, -75.578
 606.8000, -83.733
 607.0000, -75.989
 607.2000,-210.000
 607.4000, -73.349
 607.6000, -81.717
 607.8000, -81.147
 608.0000, -70.403
 608.2000, -78.421
 608.4000, -76.475
 608.6000,-210.000
 608.8000, -85.518
 609.0000, -76.105
 609.2000,-210.000
 609.4000,-210.000
 609.6000, -82.733
 609.8000, -72.539
 610.0000, -76.900
 610.2000, -79.809
 610.4000, -73.712
 610.6000, -78.452
 610.8000,-210.000
 611.0000, -72.113
 611.2000, -75.849
 611.4000,-210.000
 611.6000, -76.901
 611.8000, -82.510
 612.0000, -75.510
 612.2000, -72.387
 612.4000, -75.680
 612.6000, -78.330
 612.8000, -76.445
 613.0000,-210.000
 613.2000, -81.741
 613.4000, -73.974
 613.6000,-210.000
 613.8000, -76.192
 614.0000, -74.558
 614.2000, -73.820
 614.4000, -80.284
 614.6000, -77.359
 614.8000, -75.418
 615.0000,-210.000
 615.2000,-210.000
 615.4000, -75.799
 615.6000, -75.516
 615.8000, -74.130
 616.0000, -73.439
 616.2000, -85.022
 616.4000,-210.000
 616.6000, -75.420
 616.8000, -74.272
 617.0000, -70.386
 617.2000, -73.550
 617.4000, -74.218
 617.6000, -75.612
 617.8000, -70.862
 618.0000, -71.784
 618.2000, -78.048
 618.4000, -73.531
 618.6000, -71.157
 618.8000, -78.709
 619.0000, -74.794
 619.2000, -73.676
 619.4000, -75.644
 619.6000, -77.824
 619.8000, -72.454
 620.0000, -71.738
 620.2000, -75.816
 620.4000, -72.522
 620.6000, -76.933
 620.8000, -74.791
 621.0000, -76.949
 621.2000, -73.624
 621.4000, -72.133
 621.6000, -74.728
 621.8000, -72.374
 622.0000, -71.403
 622.2000, -80.353
 622.4000, -79.408
 622.6000, -71.925
 622.8000, -71.776
 623.0000, -71.542
 623.2000, -71.742
 623.4000, -73.536
 623.6000, -71.622
 623.8000, -73.514
 624.0000, -75.647
 624.2000, -72.653
 624.4000, -74.100
 624.6000, -69.957
 624.8000, -74.512
 625.0000, -72.963
 625.2000, -71.698
 625.4000, -74.140
 625.6000, -72.708
 625.8000, -72.160
 626.0000, -73.268
 626.2000, -70.354
 626.4000, -73.478
 626.6000, -74.466
 626.8000, -72.332
 627.0000, -70.888
 627.2000, -70.675
 627.4000, -72.552
 627.6000, -72.802
 627.8000, -70.578
 628.0000, -71.991
 628.2000, -68.799
 628.4000, -72.932
 628.6000, -71.590
 628.8000, -73.540
 629.0000, -71.068
 629.2000, -69.946
 629.4000, -71.615
 629.6000, -70.161
 629.8000, -71.203
 630.0000, -69.290
 630.2000, -71.810
 630.4000, -70.918
 630.6000, -68.852
 630.8000, -71.668
 631.0000, -70.347
 631.2000, -69.964
 631.4000, -70.504
 631.6000, -70.682
 631.8000, -69.887
 632.0000, -70.007
 632.2000, -71.605
 632.4000, -70.278
 632.6000, -69.344
 632.8000, -70.126
 633.0000, -70.729
 633.2000, -70.196
 633.4000, -69.255
 633.6000, -69.801
 633.8000, -69.866
 634.0000, -68.390
 634.2000, -70.647
 634.4000, -69.704
 634.6000, -69.519
 634.8000, -69.300
 635.0000, -67.964
 635.2000, -69.318
 635.4000, -69.738
 635.6000, -69.348
 635.8000, -69.391
 636.0000, -70.001
 636.2000, -68.980
 636.4000, -69.240
 636.6000, -69.086
 636.8000, -69.756
 637.0000, -67.919
 637.2000, -68.102
 637.4000, -69.084
 637.6000, -68.352
 637.8000, -68.613
 638.0000, -67.998
 638.2000, -68.476
 638.4000, -68.825
 638.6000, -68.728
 638.8000, -68.608
 639.0000, -68.667
 639.2000, -67.933
 639.4000, -67.721
 639.6000, -68.162
 639.8000, -68.478
 640.0000, -69.450
 640.2000, -68.581
 640.4000, -67.244
 640.6000, -68.102
 640.8000, -68.210
 641.0000, -67.921
 641.2000, -67.477
 641.4000, -67.745
 641.6000, -68.267
 641.8000, -67.576
 642.0000, -68.390
 642.2000, -68.318
 642.4000, -66.947
 642.6000, -67.344
 642.8000, -67.788
 643.0000, -66.684
 643.2000, -66.797
 643.4000, -67.448
 643.6000, -67.295
 643.8000, -67.892
 644.0000, -67.383
 644.2000, -67.981
 644.4000, -66.922
 644.6000, -66.659
 644.8000, -66.809
 645.0000, -66.773
 645.2000, -67.317
 645.4000, -66.785
 645.6000, -67.824
 645.8000, -67.026
 646.0000, -67.112
 646.2000, -67.119
 646.4000, -67.149
 646.6000, -66.682
 646.8000, -67.711
 647.0000, -66.835
 647.2000, -67.195
 647.4000, -66.528
 647.6000, -67.762
 647.8000, -66.763
 648.0000, -66.733
 648.2000, -67.207
 648.4000, -66.348
 648.6000, -66.682
 648.8000, -67.097
 649.0000, -66.801
 649.2000, -66.787
 649.4000, -66.328
 649.6000, -66.433
 649.8000, -66.620
 650.0000, -65.851
 650.2000, -66.177
 650.4000, -67.151
 650.6000, -66.803
 650.8000, -66.747
 651.0000, -66.776
 651.2000, -66.373
 651.4000, -66.264
 651.6000, -66.700
 651.8000, -66.272
 652.0000, -66.330
 652.2000, -66.196
 652.4000, -66.215
 652.6000, -66.041
 652.8000, -66.800
 653.0000, -66.831
 653.2000, -65.732
 653.4000, -65.963
 653.6000, -66.373
 653.8000, -66.132
 654.0000, -66.219
 654.2000, -65.634
 654.4000, -65.617
 654.6000, -65.693
 654.8000, -65.737
 655.0000, -65.958
 655.2000, -65.736
 655.4000, -65.740
 655.6000, -65.976
 655.8000, -65.819
 656.0000, -65.831
 656.2000, -65.832
 656.4000, -65.982
 656.6000, -65.707
 656.8000, -65.608
 657.0000, -66.019
 657.2000, -65.625
 657.4000, -65.579
 657.6000, -65.343
 657.8000, -65.830
 658.0000, -65.842
 658.2000, -65.324
 658.4000, -65.346
 658.6000, -65.611
 658.8000, -65.597
 659.0000, -65.492
 659.2000, -65.071
 659.4000, -65.548
 659.6000, -65.468
 659.8000, -64.980
 660.0000, -65.476
 660.2000, -64.935
 660.4000, -65.300
 660.6000, -65.117
 660.8000, -64.943
 661.0000, -65.089
 661.2000, -65.370
 661.4000, -65.374
 661.6000, -64.993
 661.8000, -65.430
 662.0000, -65.502
 662.2000, -65.268
 662.4000, -65.050
 662.6000, -65.274
 662.8000, -65.149
 663.0000, -64.802
 663.2000, -64.966
 663.4000, -64.895
 663.6000, -65.006
 663.8000, -65.162
 664.0000, -65.275
 664.2000, -64.684
 664.4000, -64.765
 664.6000, -64.933
 664.8000, -64.708
 665.0000, -64.611
 665.2000, -64.641
 665.4000, -64.300
 665.6000, -64.984
 665.8000, -64.673
 666.0000, -64.806
 666.2000, -64.922
 666.4000, -64.592
 666.6000, -64.576
 666.8000, -64.443
 667.0000, -64.587
 667.2000, -64.524
 667.4000, -64.924
 667.6000, -64.960
 667.8000, -64.628
 668.0000, -64.385
 668.2000, -64.942
 668.4000, -64.753
 668.6000, -64.288
 668.8000, -64.525
 669.0000, -64.424
 669.2000, -64.167
 669.4000, -64.869
 669.6000, -64.437
 669.8000, -64.251
 670.0000, -64.572
 670.2000, -64.305
 670.4000, -64.457
 670.6000, -64.593
 670.8000, -64.391
 671.0000, -64.409
 671.2000, -64.257
 671.4000, -64.294
 671.6000, -63.956
 671.8000, -64.095
 672.0000, -64.343
 672.2000, -64.590
 672.4000, -64.372
 672.6000, -64.005
 672.8000, -64.327
 673.0000, -64.249
 673.2000, -64.296
 673.4000, -64.201
 673.6000, -64.157
 673.8000, -64.556
 674.0000, -64.208
 674.2000, -64.609
 674.4000, -64.152
 674.6000, -64.112
 674.8000, -64.355
 675.0000, -64.326
 675.2000, -64.170
 675.4000, -64.296
 675.6000, -64.259
 675.8000, -64.270
 676.0000, -64.285
 676.2000, -64.311
 676.4000, -63.911
 676.6000, -64.015
 676.8000, -64.082
 677.0000, -63.670
 677.2000, -64.115
 677.4000, -64.489
 677.6000, -64.359
 677.8000, -64.243
 678.0000, -64.080
 678.2000, -64.481
 678.4000, -64.051
 678.6000, -63.972
 678.8000, -63.908
 679.0000, -64.100
 679.2000, -64.364
 679.4000, -64.138
 679.6000, -64.037
 679.8000, -63.751
 680.0000, -63.822
 680.2000, -64.317
 680.4000, -64.095
 680.6000, -64.227
 680.8000, -63.756
 681.0000, -64.272
 681.2000, -64.417
 681.4000, -64.340
 681.6000, -64.319
 681.8000, -64.551
 682.0000, -64.203
 682.2000, -64.130
 682.4000, -64.012
 682.6000, -64.150
 682.8000, -64.058
 683.0000, -63.898
 683.2000, -63.955
 683.4000, -64.224
 683.6000, -64.183
 683.8000, -64.272
 684.0000, -64.202
 684.2000, -64.066
 684.4000, -64.718
 684.6000, -63.983
 684.8000, -64.191
 685.0000, -64.395
 685.2000, -64.237
 685.4000, -64.186
 685.6000, -64.393
 685.8000, -64.122
 686.0000, -64.320
 686.2000, -64.150
 686.4000, -64.365
 686.6000, -64.095
 686.8000, -64.020
 687.0000, -64.107
 687.2000, -64.194
 687.4000, -64.100
 687.6000, -64.073
 687.8000, -64.434
 688.0000, -64.264
 688.2000, -64.251
 688.4000, -64.437
 688.6000, -64.364
 688.8000, -64.153
 689.0000, -64.320
 689.2000, -64.688
 689.4000, -64.260
 689.6000, -64.692
 689.8000, -64.284
 690.0000, -64.450
 690.2000, -64.493
 690.4000, -64.319
 690.6000, -64.455
 690.8000, -64.347
 691.0000, -64.319
 691.2000, -64.615
 691.4000, -64.314
 691.6000, -64.377
 691.8000, -64.451
 692.0000, -64.419
 692.2000, -64.466
 692.4000, -64.416
 692.6000, -64.239
 692.8000, -64.517
 693.0000, -64.704
 693.2000, -64.431
 693.4000, -64.518
 693.6000, -64.086
 693.8000, -64.389
 694.0000, -64.677
 694.2000, -64.525
 694.4000, -64.448
 694.6000, -64.471
 694.8000, -64.831
 695.0000, -64.281
 695.2000, -64.485
 695.4000, -64.565
 695.6000, -64.288
 695.8000, -64.460
 696.0000, -64.534
 696.2000, -64.616
 696.4000, -64.544
 696.6000, -64.664
 696.8000, -64.612
 697.0000, -64.412
 697.2000, -64.618
 697.4000, -64.841
 697.6000, -64.660
 697.8000, -64.483
 698.0000, -64.841
 698.2000, -64.661
 698.4000, -64.898
 698.6000, -64.468
 698.8000, -64.497
 699.0000, -64.663
 699.2000, -64.583
 699.4000, -64.423
 699.6000, -64.639
 699.8000, -64.822
 700.0000, -64.810
 700.2000, -64.794
 700.4000, -64.833
 700.6000, -64.800
 700.8000, -65.041
 701.0000, -64.980
 701.2000, -64.866
 701.4000, -64.882
 701.6000, -64.855
 701.8000, -65.048
 702.0000, -64.670
 702.2000, -64.871
 702.4000, -64.951
 702.6000, -64.607
 702.8000, -64.797
 703.0000, -64.862
 703.2000, -65.048
 703.4000, -64.790
 703.6000, -64.830
 703.8000, -64.987
 704.0000, -65.004
 704.2000, -65.043
 704.4000, -64.720
 704.6000, -65.047
 704.8000, -64.975
 705.0000, -64.856
 705.2000, -65.276
 705.4000, -64.943
 705.6000, -64.633
 705.8000, -64.828
 706.0000, -64.727
 706.2000, -65.232
 706.4000, -64.756
 706.6000, -65.232
 706.8000, -64.727
 707.0000, -65.225
 707.2000, -64.759
 707.4000, -65.152
 707.6000, -65.395
 707.8000, -64.907
 708.0000, -65.042
 708.2000, -65.009
 708.4000, -64.956
 708.6000, -65.214
 708.8000, -65.352
 709.0000, -64.767
 709.2000, -65.311
 709.4000, -64.900
 709.6000, -65.137
 709.8000, -65.501
 710.0000, -65.407
 710.2000, -65.212
 710.4000, -65.545
 710.6000, -64.753
 710.8000, -65.385
 711.0000, -65.464
 711.2000, -65.590
 711.4000, -65.072
 711.6000, -65.299
 711.8000, -65.052
 712.0000, -65.394
 712.2000, -65.178
 712.4000, -65.025
 712.6000, -64.839
 712.8000, -65.262
 713.0000, -65.391
 713.2000, -64.943
 713.4000, -65.459
 713.6000, -65.392
 713.8000, -65.375
 714.0000, -65.165
 714.2000, -65.486
 714.4000, -65.021
 714.6000, -65.195
 714.8000, -64.932
 715.0000, -65.355
 715.2000, -65.171
 715.4000, -65.370
 715.6000, -65.642
 715.8000, -65.329
 716.0000, -65.244
 716.2000, -65.556
 716.4000, -65.422
 716.6000, -65.610
 716.8000, -65.387
 717.0000, -65.242
 717.2000, -65.553
 717.4000, -65.011
 717.6000, -65.238
 717.8000, -65.357
 718.0000, -65.620
 718.2000, -65.661
 718.4000, -65.668
 718.6000, -65.423
 718.8000, -65.121
 719.0000, -65.280
 719.2000, -65.358
 719.4000, -65.393
 719.6000, -65.563
 719.8000, -66.021
 720.0000, -65.376
 720.2000, -65.537
 720.4000, -65.591
 720.6000, -65.523
 720.8000, -65.227
 721.0000, -65.420
 721.2000, -65.720
 721.4000, -65.210
 721.6000, -65.766
 721.8000, -65.399
 722.0000, -65.715
 722.2000, -65.767
 722.4000, -65.586
 722.6000, -65.663
 722.8000, -64.981
 723.0000, -65.754
 723.2000, -65.229
 723.4000, -65.863
 723.6000, -65.551
 723.8000, -65.565
 724.0000, -65.371
 724.2000, -65.750
 724.4000, -65.482
 724.6000, -65.837
 724.8000, -65.504
 725.0000, -65.626
 725.2000, -65.484
 725.4000, -65.533
 725.6000, -65.548
 725.8000, -65.798
 726.0000, -65.372
 726.2000, -65.491
 726.4000, -65.557
 726.6000, -65.778
 726.8000, -65.840
 727.0000, -65.504
 727.2000, -65.710
 727.4000, -65.976
 727.6000, -65.473
 727.8000, -65.983
 728.0000, -65.690
 728.2000, -65.801
 728.4000, -65.736
 728.6000, -65.675
 728.8000, -65.691
 729.0000, -66.259
 729.2000, -65.957
 729.4000, -65.609
 729.6000, -65.533
 729.8000, -65.404
 730.0000, -65.959
 730.2000, -65.753
 730.4000, -65.672
 730.6000, -65.591
 730.8000, -65.640
 731.0000, -65.727
 731.2000, -65.672
 731.4000, -65.337
 731.6000, -65.969
 731.8000, -65.387
 732.0000, -65.640
 732.2000, -65.736
 732.4000, -65.784
 732.6000, -65.990
 732.8000, -66.159
 733.0000, -65.801
 733.2000, -66.368
 733.4000, -65.733
 733.6000, -65.582
 733.8000, -65.933
 734.0000, -65.481
 734.2000, -65.797
 734.4000, -65.465
 734.6000, -65.699
 734.8000, -65.879
 735.0000, -65.821
 735.2000, -65.902
 735.4000, -65.450
 735.6000, -65.901
 735.8000, -65.841
 736.0000, -65.661
 736.2000, -65.688
 736.4000, -65.882
 736.6000, -65.583
 736.8000, -65.854
 737.0000, -65.839
 737.2000, -65.778
 737.4000, -65.993
 737.6000, -65.769
 737.8000, -65.611
 738.0000, -65.984
 738.2000, -66.083
 738.4000, -65.803
 738.6000, -65.639
 738.8000, -66.320
 739.0000, -65.532
 739.2000, -65.510
 739.4000, -65.631
 739.6000, -65.890
 739.8000, -66.082
 740.0000, -66.133
 740.2000, -65.825
 740.4000, -65.904
 740.6000, -65.908
 740.8000, -65.606
 741.0000, -65.960
 741.2000, -65.709
 741.4000, -65.698
 741.6000, -65.650
 741.8000, -65.673
 742.0000, -65.770
 742.2000, -66.010
 742.4000, -65.941
 742.6000, -65.674
 742.8000, -65.859
 743.0000, -65.896
 743.2000, -65.911
 743.4000, -65.846
 743.6000, -65.906
 743.8000, -66.140
 744.0000, -65.753
 744.2000, -65.814
 744.4000, -65.960
 744.6000, -66.057
 744.8000, -66.310
 745.0000, -66.569
 745.2000, -66.025
 745.4000, -66.297
 745.6000, -65.705
 745.8000, -66.227
 746.0000, -65.747
 746.2000, -66.316
 746.4000, -66.176
 746.6000, -66.007
 746.8000, -66.133
 747.0000, -65.933
 747.2000, -65.851
 747.4000, -65.606
 747.6000, -65.974
 747.8000, -66.354
 748.0000, -65.979
 748.2000, -66.063
 748.4000, -66.607
 748.6000, -66.061
 748.8000, -66.135
 749.0000, -66.126
 749.2000, -66.168
 749.4000, -66.110
 749.6000, -65.781
 749.8000, -66.078
 750.0000, -66.348
 750.2000, -66.371
 750.4000, -65.971
 750.6000, -65.911
 750.8000, -66.154
 751.0000, -65.930
 751.2000, -66.145
 751.4000, -66.028
 751.6000, -66.393
 751.8000, -66.101
 752.0000, -66.410
 752.2000, -66.278
 752.4000, -65.843
 752.6000, -66.270
 752.8000, -66.436
 753.0000, -66.537
 753.2000, -66.246
 753.4000, -66.759
 753.6000, -66.121
 753.8000, -66.482
 754.0000, -66.302
 754.2000, -66.372
 754.4000, -66.223
 754.6000, -66.531
 754.8000, -66.201
 755.0000, -66.241
 755.2000, -66.436
 755.4000, -66.496
 755.6000, -66.460
 755.8000, -66.172
 756.0000, -66.390
 756.2000, -66.671
 756.4000, -66.432
 756.6000, -66.465
 756.8000, -66.289
 757.0000, -66.399
 757.2000, -66.170
 757.4000, -65.910
 757.6000, -66.575
 757.8000, -66.882
 758.0000, -66.670
 758.2000, -66.328
 758.4000, -66.307
 758.6000, -66.795
 758.8000, -66.744
 759.0000, -66.559
 759.2000, -66.771
 759.4000, -66.281
 759.6000, -66.081
 759.8000, -66.405
 760.0000, -66.274
 760.2000, -66.701
 760.4000, -66.441
 760.6000, -66.223
 760.8000, -66.438
 761.0000, -66.445
 761.2000, -66.277
 761.4000, -66.723
 761.6000, -66.426
 761.8000, -66.798
 762.0000, -67.094
 762.2000, -67.154
 762.4000, -67.043
 762.6000, -66.550
 762.8000, -66.925
 763.0000, -66.439
 763.2000, -66.819
 763.4000, -66.328
 763.6000, -66.545
 763.8000, -66.674
 764.0000, -66.991
 764.2000, -66.871
 764.4000, -66.110
 764.6000, -66.668
 764.8000, -66.990
 765.0000, -66.859
 765.2000, -67.019
 765.4000, -66.821
 765.6000, -66.713
 765.8000, -66.923
 766.0000, -66.610
 766.2000, -66.562
 766.4000, -66.589
 766.6000, -67.105
 766.8000, -67.107
 767.0000, -67.288
 767.2000, -66.427
 767.4000, -66.926
 767.6000, -66.940
 767.8000, -66.954
 768.0000, -66.899
 768.2000, -66.765
 768.4000, -66.741
 768.6000, -67.103
 768.8000, -67.009
 769.0000, -67.049
 769.2000, -67.369
 769.4000, -66.895
 769.6000, -67.179
 769.8000, -66.922
 770.0000, -66.992
 770.2000, -67.055
 770.4000, -66.472
 770.6000, -67.278
 770.8000, -67.082
 771.0000, -66.753
 771.2000, -66.745
 771.4000, -67.360
 771.6000, -67.098
 771.8000, -66.573
 772.0000, -67.602
 772.2000, -67.338
 772.4000, -66.934
 772.6000, -67.021
 772.8000, -67.093
 773.0000, -67.039
 773.2000, -67.768
 773.4000, -67.233
 773.6000, -67.034
 773.8000, -66.915
 774.0000, -66.892
 774.2000, -67.125
 774.4000, -67.370
 774.6000, -66.737
 774.8000, -66.734
 775.0000, -67.191
 775.2000, -67.753
 775.4000, -67.464
 775.6000, -67.286
 775.8000, -67.148
 776.0000, -67.099
 776.2000, -67.674
 776.4000, -67.547
 776.6000, -67.321
 776.8000, -67.490
 777.0000, -67.046
 777.2000, -67.537
 777.4000, -67.255
 777.6000, -66.880
 777.8000, -67.301
 778.0000, -67.114
 778.2000, -67.636
 778.4000, -66.943
 778.6000, -67.278
 778.8000, -67.311
 779.0000, -67.669
 779.2000, -67.383
 779.4000, -67.398
 779.6000, -67.287
 779.8000, -67.156
 780.0000, -67.456
 780.2000, -67.108
 780.4000, -67.422
 780.6000, -67.720
 780.8000, -67.363
 781.0000, -67.696
 781.2000, -68.095
 781.4000, -67.718
 781.6000, -67.309
 781.8000, -67.534
 782.0000, -67.616
 782.2000, -67.398
 782.4000, -67.386
 782.6000, -67.877
 782.8000, -67.699
 783.0000, -67.402
 783.2000, -67.434
 783.4000, -66.929
 783.6000, -67.337
 783.8000, -67.468
 784.0000, -67.680
 784.2000, -68.274
 784.4000, -67.773
 784.6000, -67.676
 784.8000, -67.929
 785.0000, -67.467
 785.2000, -68.212
 785.4000, -67.702
 785.6000, -67.792
 785.8000, -67.041
 786.0000, -67.531
 786.2000, -68.051
 786.4000, -68.202
 786.6000, -67.923
 786.8000, -67.331
 787.0000, -67.553
 787.2000, -67.225
 787.4000, -68.001
 787.6000, -67.523
 787.8000, -68.262
 788.0000, -67.624
 788.2000, -68.118
 788.4000, -67.653
 788.6000, -67.577
 788.8000, -67.913
 789.0000, -67.794
 789.2000, -67.716
 789.4000, -67.508
 789.6000, -67.425
 789.8000, -67.653
 790.0000, -67.961
 790.2000, -67.644
 790.4000, -67.619
 790.6000, -67.799
 790.8000, -68.041
 791.0000, -67.878
 791.2000, -67.336
 791.4000, -67.652
 791.6000, -67.840
 791.8000, -67.230
 792.0000, -67.599
 792.2000, -67.772
 792.4000, -68.112
 792.6000, -67.303
 792.8000, -67.685
 793.0000, -67.963
 793.2000, -67.657
 793.4000, -67.531
 793.6000, -67.589
 793.8000, -67.272
 794.0000, -67.973
 794.2000, -67.799
 794.4000, -67.961
 794.6000, -67.534
 794.8000, -67.852
 795.0000, -67.513
 795.2000, -67.835
 795.4000, -67.518
 795.6000, -67.718
 795.8000, -68.093
 796.0000, -67.868
 796.2000, -68.111
 796.4000, -67.790
 796.6000, -67.867
 796.8000, -67.804
 797.0000, -67.880
 797.2000, -68.018
 797.4000, -68.857
 797.6000, -68.077
 797.8000, -68.148
 798.0000, -67.989
 798.2000, -67.476
 798.4000, -68.184
 798.6000, -67.920
 798.8000, -67.821
 799.0000, -67.526
 799.2000, -67.834
 799.4000, -67.918
 799.6000, -67.825
 799.8000, -67.692
 800.0000, -67.572
 800.2000, -67.934
 800.4000, -68.173
 800.6000, -67.741
 800.8000, -67.990
 801.0000, -67.855
 801.2000, -67.991
 801.4000, -68.041
 801.6000, -67.476
 801.8000, -67.651
 802.0000, -67.436
 802.2000, -67.869
 802.4000, -67.598
 802.6000, -68.035
 802.8000, -68.035
 803.0000, -68.142
 803.2000, -68.599
 803.4000, -68.021
 803.6000, -68.467
 803.8000, -67.543
 804.0000, -67.754
 804.2000, -68.358
 804.4000, -68.667
 804.6000, -67.768
 804.8000, -68.145
 805.0000, -68.153
 805.2000, -68.213
 805.4000, -67.756
 805.6000, -67.607
 805.8000, -68.482
 806.0000, -68.186
 806.2000, -67.989
 806.4000, -67.431
 806.6000, -67.934
 806.8000, -68.517
 807.0000, -68.004
 807.2000, -67.726
 807.4000, -67.512
 807.6000, -67.632
 807.8000, -67.919
 808.0000, -68.280
 808.2000, -67.572
 808.4000, -67.353
 808.6000, -67.733
 808.8000, -67.653
 809.0000, -67.831
 809.2000, -67.545
 809.4000, -68.319
 809.6000, -68.093
 809.8000, -68.221
 810.0000, -67.362
 810.2000, -68.215
 810.4000, -67.503
 810.6000, -68.268
 810.8000, -68.829
 811.0000, -67.959
 811.2000, -68.651
 811.4000, -67.805
 811.6000, -68.098
 811.8000, -67.874
 812.0000, -67.761
 812.2000, -68.786
 812.4000, -68.023
 812.6000, -67.924
 812.8000, -68.242
 813.0000, -68.343
 813.2000, -67.998
 813.4000, -67.659
 813.6000, -67.417
 813.8000, -68.013
 814.0000, -67.930
 814.2000, -67.835
 814.4000, -67.691
 814.6000, -68.135
 814.8000, -67.970
 815.0000, -67.857
 815.2000, -67.847
 815.4000, -67.622
 815.6000, -68.274
 815.8000, -67.583
 816.0000, -67.849
 816.2000, -67.542
 816.4000, -68.292
 816.6000, -67.996
 816.8000, -67.850
 817.0000, -67.885
 817.2000, -68.287
 817.4000, -68.255
 817.6000, -68.549
 817.8000, -68.307
 818.0000, -68.317
 818.2000, -68.456
 818.4000, -68.042
 818.6000, -68.103
 818.8000, -68.011
 819.0000, -67.794
 819.2000, -67.338
 819.4000, -68.528
 819.6000, -68.262
 819.8000, -68.423
 820.0000, -69.262
 820.2000, -67.863
 820.4000, -68.158
 820.6000, -67.760
 820.8000, -68.272
 821.0000, -68.343
 821.2000, -67.854
 821.4000, -68.351
 821.6000, -68.580
 821.8000, -68.270
 822.0000, -67.826
 822.2000, -67.959
 822.4000, -68.184
 822.6000, -68.426
 822.8000, -68.180
 823.0000, -68.418
 823.2000, -68.219
 823.4000, -68.188
 823.6000, -68.214
 823.8000, -68.193
 824.0000, -68.774
 824.2000, -68.237
 824.4000, -68.279
 824.6000, -68.419
 824.8000, -68.240
 825.0000, -68.272
 825.2000, -68.432
 825.4000, -67.851
 825.6000, -68.156
 825.8000, -68.236
 826.0000, -67.733
 826.2000, -67.946
 826.4000, -68.685
 826.6000, -68.386
 826.8000, -69.103
 827.0000, -68.043
 827.2000, -68.437
 827.4000, -68.729
 827.6000, -68.197
 827.8000, -67.496
 828.0000, -68.315
 828.2000, -68.738
 828.4000, -68.105
 828.6000, -68.779
 828.8000, -68.389
 829.0000, -68.308
 829.2000, -68.160
 829.4000, -68.258
 829.6000, -67.678
 829.8000, -67.960
 830.0000, -68.535
 830.2000, -68.149
 830.4000, -67.539
 830.6000, -68.395
 830.8000, -67.521
 831.0000, -68.689
 831.2000, -67.886
 831.4000, -68.191
 831.6000, -68.214
 831.8000, -68.910
 832.0000, -67.522
 832.2000, -68.483
 832.4000, -67.988
 832.6000, -68.644
 832.8000, -67.693
 833.0000, -68.172
 833.2000, -67.601
 833.4000, -68.354
 833.6000, -68.441
 833.8000, -67.949
 834.0000, -68.524
 834.2000, -68.145
 834.4000, -68.282
 834.6000, -67.976
 834.8000, -68.064
 835.0000, -68.147
 835.2000, -67.814
 835.4000, -68.352
 835.6000, -68.065
 835.8000, -69.053
 836.0000, -68.506
 836.2000, -68.094
 836.4000, -68.509
 836.6000, -68.414
 836.8000, -68.668
 837.0000, -68.510
 837.2000, -68.398
 837.4000, -67.850
 837.6000, -67.804
 837.8000, -68.201
 838.0000, -68.637
 838.2000, -68.184
 838.4000, -68.664
 838.6000, -68.831
 838.8000, -68.204
 839.0000, -68.181
 839.2000, -68.378
 839.4000, -68.333
 839.6000, -68.675
 839.8000, -68.984
 840.0000, -68.352
 840.2000, -68.145
 840.4000, -68.432
 840.6000, -68.175
 840.8000, -68.840
 841.0000, -67.801
 841.2000, -68.642
 841.4000, -68.300
 841.6000, -68.891
 841.8000, -68.129
 842.0000, -68.161
 842.2000, -69.002
 842.4000, -68.168
 842.6000, -68.489
 842.8000, -68.900
 843.0000, -68.305
 843.2000, -68.900
 843.4000, -68.682
 843.6000, -68.707
 843.8000, -68.371
 844.0000, -68.682
 844.2000, -67.649
 844.4000, -68.000
 844.6000, -68.339
 844.8000, -67.906
 845.0000, -68.075
 845.2000, -68.293
 845.4000, -68.806
 845.6000, -69.115
 845.8000, -68.445
 846.0000, -68.505
 846.2000, -68.343
 846.4000, -68.120
 846.6000, -68.962
 846.8000, -68.795
 847.0000, -68.451
 847.2000, -69.069
 847.4000, -68.512
 847.6000, -67.956
 847.8000, -68.447
 848.0000, -68.627
 848.2000, -68.392
 848.4000, -68.175
 848.6000, -68.270
 848.8000, -68.335
 849.0000, -68.364
 849.2000, -68.805
 849.4000, -68.485
 849.6000, -67.810
 849.8000, -68.109
 850.0000, -68.403
 850.2000, -69.032
 850.4000, -68.484
 850.6000, -67.954
 850.8000, -69.122
 851.0000, -68.371
 851.2000, -68.174
 851.4000, -68.476
 851.6000, -68.479
 851.8000, -68.598
 852.0000, -68.596
 852.2000, -68.445
 852.4000, -69.197
 852.6000, -68.266
 852.8000, -68.033
 853.0000, -67.842
 853.2000, -68.311
 853.4000, -68.393
 853.6000, -68.763
 853.8000, -68.802
 854.0000, -68.482
 854.2000, -67.861
 854.4000, -68.062
 854.6000, -68.221
 854.8000, -68.896
 855.0000, -68.379
 855.2000, -68.239
 855.4000, -68.510
 855.6000, -68.652
 855.8000, -68.523
 856.0000, -68.289
 856.2000, -68.750
 856.4000, -68.750
 856.6000, -68.592
 856.8000, -68.799
 857.0000, -68.715
 857.2000, -69.101
 857.4000, -68.920
 857.6000, -68.807
 857.8000, -68.581
 858.0000, -68.811
 858.2000, -68.216
 858.4000, -68.818
 858.6000, -68.066
 858.8000, -69.502
 859.0000, -68.671
 859.2000, -68.500
 859.4000, -68.663
 859.6000, -68.736
 859.8000, -68.752
 860.0000, -67.920
 860.2000, -67.741
 860.4000, -67.855
 860.6000, -68.828
 860.8000, -68.514
 861.0000, -68.847
 861.2000, -68.517
 861.4000, -69.030
 861.6000, -68.443
 861.8000, -68.293
 862.0000, -69.067
 862.2000, -68.737
 862.4000, -69.019
 862.6000, -68.150
 862.8000, -68.511
 863.0000, -69.067
 863.2000, -67.914
 863.4000, -69.035
 863.6000, -68.887
 863.8000, -68.572
 864.0000, -68.257
 864.2000, -68.935
 864.4000, -68.856
 864.6000, -68.780
 864.8000, -68.421
 865.0000, -68.276
 865.2000, -68.840
 865.4000, -67.949
 865.6000, -68.704
 865.8000, -67.970
 866.0000, -68.494
 866.2000, -68.692
 866.4000, -68.662
 866.6000, -69.336
 866.8000, -68.703
 867.0000, -68.777
 867.2000, -68.845
 867.4000, -68.374
 867.6000, -68.179
 867.8000, -68.810
 868.0000, -68.171
 868.2000, -68.226
 868.4000, -68.456
 868.6000, -68.399
 868.8000, -68.408
 869.0000, -68.627
 869.2000, -68.594
 869.4000, -68.935
 869.6000, -68.523
 869.8000, -68.432
 870.0000, -68.326
 870.2000, -68.601
 870.4000, -68.090
 870.6000, -68.485
 870.8000, -68.451
 871.0000, -68.009
 871.2000, -68.220
 871.4000, -67.973
 871.6000, -68.501
 871.8000, -68.339
 872.0000, -68.901
 872.2000, -68.566
 872.4000, -68.634
 872.6000, -68.634
 872.8000, -68.757
 873.0000, -68.740
 873.2000, -68.350
 873.4000, -68.374
 873.6000, -68.537
 873.8000, -68.774
 874.0000, -68.725
 874.2000, -68.374
 874.4000, -69.090
 874.6000, -68.837
 874.8000, -68.519
 875.0000, -68.189
 875.2000, -68.516
 875.4000, -68.526
 875.6000, -69.072
 875.8000, -68.462
 876.0000, -68.972
 876.2000, -68.433
 876.4000, -68.168
 876.6000, -68.727
 876.8000, -68.200
 877.0000, -68.513
 877.2000, -68.501
 877.4000, -68.130
 877.6000, -68.220
 877.8000, -69.246
 878.0000, -68.463
 878.2000, -68.543
 878.4000, -68.594
 878.6000, -68.536
 878.8000, -68.057
 879.0000, -68.093
 879.2000, -68.461
 879.4000, -69.080
 879.6000, -67.731
 879.8000, -68.323
 880.0000, -68.189
 880.2000, -68.757
 880.4000, -68.279
 880.6000, -68.761
 880.8000, -68.121
 881.0000, -68.478
 881.2000, -68.525
 881.4000, -68.161
 881.6000, -68.468
 881.8000, -68.339
 882.0000, -68.476
 882.2000, -68.416
 882.4000, -68.729
 882.6000, -68.023
 882.8000, -68.752
 883.0000, -67.914
 883.2000, -68.261
 883.4000, -68.461
 883.6000, -68.046
 883.8000, -68.335
 884.0000, -68.383
 884.2000, -68.315
 884.4000, -67.817
 884.6000, -68.261
 884.8000, -68.501
 885.0000, -68.509
 885.2000, -68.957
 885.4000, -68.192
 885.6000, -68.151
 885.8000, -68.216
 886.0000, -68.582
 886.2000, -68.224
 886.4000, -68.270
 886.6000, -67.920
 886.8000, -68.057
 887.0000, -68.102
 887.2000, -67.907
 887.4000, -68.753
 887.6000, -68.473
 887.8000, -68.300
 888.0000, -68.103
 888.2000, -68.395
 888.4000, -68.017
 888.6000, -67.844
 888.8000, -68.243
 889.0000, -67.909
 889.2000, -68.246
 889.4000, -68.040
 889.6000, -68.315
 889.8000, -67.769
 890.0000, -68.153
 890.2000, -68.078
 890.4000, -68.279
 890.6000, -68.563
 890.8000, -68.229
 891.0000, -67.660
 891.2000, -67.682
 891.4000, -68.125
 891.6000, -67.900
 891.8000, -67.859
 892.0000, -67.991
 892.2000, -68.012
 892.4000, -68.434
 892.6000, -68.177
 892.8000, -67.987
 893.0000, -67.718
 893.2000, -68.079
 893.4000, -67.975
 893.6000, -68.178
 893.8000, -68.068
 894.0000, -68.030
 894.2000, -68.067
 894.4000, -67.954
 894.6000, -68.006
 894.8000, -68.033
 895.0000, -68.235
 895.2000, -68.008
 895.4000, -67.571
 895.6000, -68.201
 895.8000, -68.480
 896.0000, -68.246
 896.2000, -67.727
 896.4000, -67.938
 896.6000, -67.853
 896.8000, -67.857
 897.0000, -68.145
 897.2000, -67.822
 897.4000, -68.299
 897.6000, -68.084
 897.8000, -68.107
 898.0000, -67.901
 898.2000, -68.066
 898.4000, -68.085
 898.6000, -67.952
 898.8000, -67.927
 899.0000, -67.743
 899.2000, -67.737
 899.4000, -67.799
 899.6000, -68.012
 899.8000, -68.167
 900.0000, -67.981
 900.2000, -67.795
 900.4000, -68.007
 900.6000, -67.708
 900.8000, -67.665
 901.0000, -67.854
 901.2000, -68.610
 901.4000, -67.362
 901.6000, -67.698
 901.8000, -67.783
 902.0000, -68.149
 902.2000, -67.474
 902.4000, -67.766
 902.6000, -67.660
 902.8000, -68.011
 903.0000, -67.472
 903.2000, -67.693
 903.4000, -67.573
 903.6000, -67.283
 903.8000, -67.870
 904.0000, -67.394
 904.2000, -67.865
 904.4000, -67.606
 904.6000, -67.478
 904.8000, -67.912
 905.0000, -67.225
 905.2000, -67.260
 905.4000, -67.569
 905.6000, -67.059
 905.8000, -67.921
 906.0000, -68.289
 906.2000, -68.471
 906.4000, -68.161
 906.6000, -67.932
 906.8000, -67.274
 907.0000, -67.969
 907.2000, -67.404
 907.4000, -67.581
 907.6000, -67.996
 907.8000, -67.652
 908.0000, -68.008
 908.2000, -67.735
 908.4000, -67.517
 908.6000, -67.306
 908.8000, -67.986
 909.0000, -67.607
 909.2000, -66.947
 909.4000, -67.280
 909.6000, -67.562
 909.8000, -67.295
 910.0000, -67.805
 910.2000, -67.361
 910.4000, -67.300
 910.6000, -67.685
 910.8000, -67.538
 911.0000, -67.934
 911.2000, -67.845
 911.4000, -67.797
 911.6000, -67.736
 911.8000, -67.945
 912.0000, -68.137
 912.2000, -67.577
 912.4000, -67.677
 912.6000, -67.337
 912.8000, -67.691
 913.0000, -67.143
 913.2000, -67.303
 913.4000, -67.289
 913.6000, -67.494
 913.8000, -68.157
 914.0000, -67.382
 914.2000, -67.279
 914.4000, -66.845
 914.6000, -67.082
 914.8000, -67.583
 915.0000, -67.077
 915.2000, -67.571
 915.4000, -67.545
 915.6000, -67.647
 915.8000, -67.684
 916.0000, -67.779
 916.2000, -67.591
 916.4000, -67.045
 916.6000, -67.302
 916.8000, -67.396
 917.0000, -67.375
 917.2000, -67.388
 917.4000, -67.892
 917.6000, -67.585
 917.8000, -67.501
 918.0000, -67.612
 918.2000, -67.146
 918.4000, -67.832
 918.6000, -67.238
 918.8000, -67.224
 919.0000, -67.214
 919.2000, -67.368
 919.4000, -67.334
 919.6000, -67.119
 919.8000, -67.558
 920.0000, -67.412
 920.2000, -67.220
 920.4000, -67.451
 920.6000, -67.549
 920.8000, -66.934
 921.0000, -67.493
 921.2000, -67.227
 921.4000, -67.310
 921.6000, -66.934
 921.8000, -67.493
 922.0000, -67.348
 922.2000, -67.526
 922.4000, -67.135
 922.6000, -67.813
 922.8000, -67.091
 923.0000, -66.743
 923.2000, -67.022
 923.4000, -67.544
 923.6000, -67.328
 923.8000, -67.234
 924.0000, -67.282
 924.2000, -67.086
 924.4000, -67.257
 924.6000, -66.741
 924.8000, -67.337
 925.0000, -67.082
 925.2000, -67.403
 925.4000, -67.133
 925.6000, -67.024
 925.8000, -66.750
 926.0000, -66.838
 926.2000, -67.127
 926.4000, -67.181
 926.6000, -67.437
 926.8000, -67.348
 927.0000, -67.350
 927.2000, -67.213
 927.4000, -67.135
 927.6000, -67.023
 927.8000, -67.439
 928.0000, -67.046
 928.2000, -67.405
 928.4000, -67.059
 928.6000, -66.997
 928.8000, -67.402
 929.0000, -67.208
 929.2000, -67.042
 929.4000, -66.905
 929.6000, -67.047
 929.8000, -67.004
 930.0000, -67.188
 930.2000, -67.010
 930.4000, -66.913
 930.6000, -67.088
 930.8000, -66.960
 931.0000, -67.082
 931.2000, -67.094
 931.4000, -66.932
 931.6000, -67.028
 931.8000, -66.935
 932.0000, -67.161
 932.2000, -67.061
 932.4000, -67.236
 932.6000, -67.252
 932.8000, -66.998
 933.0000, -66.908
 933.2000, -66.810
 933.4000, -67.056
 933.6000, -66.977
 933.8000, -67.016
 934.0000, -67.173
 934.2000, -67.194
 934.4000, -67.019
 934.6000, -67.072
 934.8000, -67.167
 935.0000, -66.699
 935.2000, -67.362
 935.4000, -66.957
 935.6000, -66.860
 935.8000, -66.978
 936.0000, -66.990
 936.2000, -67.022
 936.4000, -67.102
 936.6000, -66.652
 936.8000, -67.251
 937.0000, -67.384
 937.2000, -67.235
 937.4000, -67.072
 937.6000, -67.041
 937.8000, -67.362
 938.0000, -66.921
 938.2000, -67.398
 938.4000, -66.961
 938.6000, -67.102
 938.8000, -67.123
 939.0000, -66.830
 939.2000, -66.881
 939.4000, -66.871
 939.6000, -66.813
 939.8000, -66.956
 940.0000, -67.285
 940.2000, -67.260
 940.4000, -67.178
 940.6000, -66.849
 940.8000, -67.399
 941.0000, -66.882
 941.2000, -67.112
 941.4000, -67.037
 941.6000, -67.122
 941.8000, -67.280
 942.0000, -66.796
 942.2000, -66.923
 942.4000, -66.696
 942.6000, -67.154
 942.8000, -66.662
 943.0000, -67.262
 943.2000, -67.068
 943.4000, -67.003
 943.6000, -67.236
 943.8000, -67.188
 944.0000, -67.236
 944.2000, -67.095
 944.4000, -67.154
 944.6000, -67.149
 944.8000, -66.846
 945.0000, -66.947
 945.2000, -67.023
 945.4000, -67.114
 945.6000, -67.235
 945.8000, -66.772
 946.0000, -67.260
 946.2000, -67.209
 946.4000, -66.841
 946.6000, -67.041
 946.8000, -66.805
 947.0000, -67.156
 947.2000, -66.947
 947.4000, -67.124
 947.6000, -67.188
 947.8000, -66.995
 948.0000, -66.851
 948.2000, -67.262
 948.4000, -66.936
 948.6000, -67.046
 948.8000, -67.144
 949.0000, -66.977
 949.2000, -67.065
 949.4000, -67.081
 949.6000, -67.164
 949.8000, -66.927
 950.0000, -67.248
 950.2000, -66.944
 950.4000, -67.103
 950.6000, -67.282
 950.8000, -67.049
 951.0000, -66.715
 951.2000, -66.902
 951.4000, -66.906
 951.6000, -67.028
 951.8000, -67.162
 952.0000, -66.959
 952.2000, -67.103
 952.4000, -67.006
 952.6000, -67.335
 952.8000, -66.851
 953.0000, -67.017
 953.2000, -66.783
 953.4000, -67.007
 953.6000, -67.034
 953.8000, -67.250
 954.0000, -66.929
 954.2000, -67.228
 954.4000, -67.089
 954.6000, -67.174
 954.8000, -67.074
 955.0000, -67.113
 955.2000, -67.172
 955.4000, -66.952
 955.6000, -67.121
 955.8000, -67.496
 956.0000, -67.382
 956.2000, -66.953
 956.4000, -67.314
 956.6000, -67.181
 956.8000, -67.106
 957.0000, -67.069
 957.2000, -67.171
 957.4000, -67.384
 957.6000, -66.769
 957.8000, -67.003
 958.0000, -66.851
 958.2000, -67.084
 958.4000, -67.248
 958.6000, -67.235
 958.8000, -67.245
 959.0000, -67.098
 959.2000, -67.252
 959.4000, -67.062
 959.6000, -67.207
 959.8000, -66.937
 960.0000, -67.143
 960.2000, -66.803
 960.4000, -67.140
 960.6000, -66.982
 960.8000, -67.113
 961.0000, -67.020
 961.2000, -67.258
 961.4000, -66.940
 961.6000, -67.101
 961.8000, -66.922
 962.0000, -66.603
 962.2000, -66.586
 962.4000, -67.203
 962.6000, -67.157
 962.8000, -67.211
 963.0000, -67.049
 963.2000, -66.956
 963.4000, -66.846
 963.6000, -67.120
 963.8000, -66.983
 964.0000, -67.000
 964.2000, -66.907
 964.4000, -66.935
 964.6000, -67.019
 964.8000, -66.998
 965.0000, -66.956
 965.2000, -67.098
 965.4000, -66.961
 965.6000, -67.022
 965.8000, -66.924
 966.0000, -67.074
 966.2000, -66.928
 966.4000, -67.058
 966.6000, -66.999
 966.8000, -67.112
 967.0000, -67.211
 967.2000, -67.177
 967.4000, -67.289
 967.6000, -66.964
 967.8000, -67.362
 968.0000, -67.243
 968.2000, -67.279
 968.4000, -67.098
 968.6000, -67.211
 968.8000, -67.215
 969.0000, -67.124
 969.2000, -67.122
 969.4000, -67.273
 969.6000, -67.272
 969.8000, -66.998
 970.0000, -66.931
 970.2000, -67.023
 970.4000, -67.097
 970.6000, -67.292
 970.8000, -67.089
 971.0000, -67.354
 971.2000, -67.308
 971.4000, -67.527
 971.6000, -67.395
 971.8000, -67.336
 972.0000, -66.980
 972.2000, -67.123
 972.4000, -67.117
 972.6000, -67.639
 972.8000, -67.359
 973.0000, -67.307
 973.2000, -67.292
 973.4000, -67.348
 973.6000, -67.288
 973.8000, -67.430
 974.0000, -67.493
 974.2000, -67.300
 974.4000, -67.593
 974.6000, -67.497
 974.8000, -67.695
 975.0000, -67.446
 975.2000, -67.594
 975.4000, -67.611
 975.6000, -67.490
 975.8000, -67.626
 976.0000, -68.049
 976.2000, -67.781
 976.4000, -67.740
 976.6000, -67.735
 976.8000, -67.964
 977.0000, -67.876
 977.2000, -67.902
 977.4000, -68.062
 977.6000, -67.786
 977.8000, -67.730
 978.0000, -67.578
 978.2000, -67.685
 978.4000, -67.865
 978.6000, -67.751
 978.8000, -68.144
 979.0000, -67.769
 979.2000, -67.824
 979.4000, -68.142
 979.6000, -68.237
 979.8000, -67.936
 980.0000, -67.989
 980.2000, -68.035
 980.4000, -67.898
 980.6000, -68.100
 980.8000, -67.834
 981.0000, -67.817
 981.2000, -67.803
 981.4000, -68.043
 981.6000, -67.678
 981.8000, -67.405
 982.0000, -67.657
 982.2000, -67.885
 982.4000, -67.726
 982.6000, -67.843
 982.8000, -67.466
 983.0000, -67.578
 983.2000, -67.731
 983.4000, -67.748
 983.6000, -67.615
 983.8000, -67.549
 984.0000, -67.777
 984.2000, -67.446
 984.4000, -67.390
 984.6000, -67.270
 984.8000, -67.596
 985.0000, -67.574
 985.2000, -67.202
 985.4000, -67.275
 985.6000, -67.355
 985.8000, -67.496
 986.0000, -67.271
 986.2000, -67.321
 986.4000, -67.483
 986.6000, -67.732
 986.8000, -67.452
 987.0000, -67.318
 987.2000, -67.341
 987.4000, -67.306
 987.6000, -67.319
 987.8000, -67.161
 988.0000, -67.582
 988.2000, -66.977
 988.4000, -67.264
 988.6000, -67.279
 988.8000, -67.352
 989.0000, -67.214
 989.2000, -67.020
 989.4000, -66.983
 989.6000, -67.050
 989.8000, -67.125
 990.0000, -67.148
 990.2000, -67.185
 990.4000, -67.238
 990.6000, -67.273
 990.8000, -66.876
 991.0000, -66.942
 991.2000, -67.070
 991.4000, -67.305
 991.6000, -67.254
 991.8000, -66.771
 992.0000, -67.135
 992.2000, -66.985
 992.4000, -67.001
 992.6000, -67.554
 992.8000, -67.078
 993.0000, -66.937
 993.2000, -67.109
 993.4000, -67.018
 993.6000, -67.154
 993.8000, -66.956
 994.0000, -66.975
 994.2000, -67.079
 994.4000, -66.926
 994.6000, -66.962
 994.8000, -67.065
 995.0000, -67.132
 995.2000, -67.189
 995.4000, -67.107
 995.6000, -66.776
 995.8000, -66.957
 996.0000, -67.135
 996.2000, -67.059
 996.4000, -67.141
 996.6000, -67.016
 996.8000, -67.365
 997.0000, -67.226
 997.2000, -67.250
 997.4000, -67.375
 997.6000, -67.115
 997.8000, -67.198
 998.0000, -67.258
 998.2000, -67.252
 998.4000, -67.234
 998.6000, -67.330
 998.8000, -67.297
 999.0000, -67.301
 999.2000, -67.154
 999.4000, -67.410
 999.6000, -67.597
 999.8000, -67.450
1000.0000, -67.381
1000.2000, -67.392
1000.4000, -67.528
1000.6000, -67.674
1000.8000, -67.480
1001.0000, -67.554
1001.2000, -67.399
1001.4000, -67.207
1001.6000, -67.475
1001.8000, -67.330
1002.0000, -67.353
1002.2000, -67.130
1002.4000, -67.360
1002.6000, -67.283
1002.8000, -67.133
1003.0000, -67.052
1003.2000, -67.024
1003.4000, -67.463
1003.6000, -67.162
1003.8000, -67.191
1004.0000, -67.180
1004.2000, -67.259
1004.4000, -67.248
1004.6000, -67.300
1004.8000, -67.156
1005.0000, -67.363
1005.2000, -67.313
1005.4000, -67.337
1005.6000, -67.472
1005.8000, -67.148
1006.0000, -67.627
1006.2000, -67.382
1006.4000, -67.399
1006.6000, -67.364
1006.8000, -67.452
1007.0000, -67.551
1007.2000, -67.637
1007.4000, -67.613
1007.6000, -67.716
1007.8000, -67.446
1008.0000, -67.718
1008.2000, -67.746
1008.4000, -67.686
1008.6000, -67.783
1008.8000, -67.844
1009.0000, -67.719
1009.2000, -67.930
1009.4000, -68.276
1009.6000, -68.258
1009.8000, -68.047
1010.0000, -68.083
1010.2000, -68.155
1010.4000, -68.423
1010.6000, -68.331
1010.8000, -68.466
1011.0000, -68.530
1011.2000, -68.585
1011.4000, -68.442
1011.6000, -68.375
1011.8000, -68.289
1012.0000, -68.355
1012.2000, -68.378
1012.4000, -68.225
1012.6000, -68.230
1012.8000, -68.113
1013.0000, -68.456
1013.2000, -68.383
1013.4000, -68.225
1013.6000, -67.921
1013.8000, -68.506
1014.0000, -68.429
1014.2000, -68.087
1014.4000, -68.400
1014.6000, -68.093
1014.8000, -68.037
1015.0000, -68.035
1015.2000, -67.761
1015.4000, -68.098
1015.6000, -67.917
1015.8000, -67.853
1016.0000, -67.775
1016.2000, -67.851
1016.4000, -67.584
1016.6000, -67.674
1016.8000, -67.522
1017.0000, -67.441
1017.2000, -67.778
1017.4000, -67.576
1017.6000, -67.510
1017.8000, -67.436
1018.0000, -67.370
1018.2000, -67.294
1018.4000, -67.242
1018.6000, -67.292
1018.8000, -67.314
1019.0000, -67.061
1019.2000, -67.051
1019.4000, -67.041
1019.6000, -66.802
1019.8000, -66.918
1020.0000, -66.700
1020.2000, -66.758
1020.4000, -66.671
1020.6000, -66.626
1020.8000, -66.526
1021.0000, -66.633
1021.2000, -66.285
1021.4000, -66.411
1021.6000, -66.467
1021.8000, -66.642
1022.0000, -66.576
1022.2000, -66.508
1022.4000, -66.179
1022.6000, -66.233
1022.8000, -66.237
1023.0000, -66.127
1023.2000, -66.079
1023.4000, -66.098
1023.6000, -65.963
1023.8000, -66.170
1024.0000, -65.789
1024.2000, -65.888
1024.4000, -65.884
1024.6000, -65.788
1024.8000, -65.640
1025.0000, -65.782
1025.2000, -65.625
1025.4000, -65.450
1025.6000, -65.481
1025.8000, -65.414
1026.0000, -65.562
1026.2000, -65.416
1026.4000, -65.503
1026.6000, -65.357
1026.8000, -65.283
1027.0000, -65.268
1027.2000, -65.067
1027.4000, -65.108
1027.6000, -64.971
1027.8000, -65.011
1028.0000, -64.966
1028.2000, -64.907
1028.4000, -64.863
1028.6000, -64.712
1028.8000, -64.755
1029.0000, -64.499
1029.2000, -64.397
1029.4000, -64.560
1029.6000, -64.378
1029.8000, -64.406
1030.0000, -64.519
1030.2000, -64.365
1030.4000, -64.517
1030.6000, -64.360
1030.8000, -64.240
1031.0000, -64.286
1031.2000, -64.275
1031.4000, -64.298
1031.6000, -64.313
1031.8000, -64.303
1032.0000, -64.251
1032.2000, -64.241
1032.4000, -64.112
1032.6000, -64.102
1032.8000, -64.117
1033.0000, -63.979
1033.2000, -64.055
1033.4000, -63.867
1033.6000, -63.931
1033.8000, -63.793
1034.0000, -63.818
1034.2000, -63.830
1034.4000, -63.692
1034.6000, -63.670
1034.8000, -63.655
1035.0000, -63.517
1035.2000, -63.532
1035.4000, -63.543
1035.6000, -63.544
1035.8000, -63.532
1036.0000, -63.439
1036.2000, -63.483
1036.4000, -63.527
1036.6000, -63.454
1036.8000, -63.456
1037.0000, -63.497
1037.2000, -63.397
1037.4000, -63.482
1037.6000, -63.370
1037.8000, -63.432
1038.0000, -63.458
1038.2000, -63.578
1038.4000, -63.650
1038.6000, -63.474
1038.8000, -63.572
1039.0000, -63.540
1039.2000, -63.595
1039.4000, -63.508
1039.6000, -63.599
1039.8000, -63.719
1040.0000, -63.701
1040.2000, -63.618
1040.4000, -63.575
1040.6000, -63.742
1040.8000, -63.639
1041.0000, -63.823
1041.2000, -63.750
1041.4000, -63.716
1041.6000, -63.868
1041.8000, -63.826
1042.0000, -63.691
1042.2000, -63.872
1042.4000, -63.734
1042.6000, -63.932
1042.8000, -63.876
1043.0000, -63.953
1043.2000, -63.842
1043.4000, -63.977
1043.6000, -64.018
1043.8000, -63.875
1044.0000, -63.910
1044.2000, -63.808
1044.4000, -63.677
1044.6000, -63.804
1044.8000, -63.753
1045.0000, -63.858
1045.2000, -63.704
1045.4000, -63.809
1045.6000, -63.884
1045.8000, -63.636
1046.0000, -63.537
1046.2000, -63.549
1046.4000, -63.696
1046.6000, -63.451
1046.8000, -63.599
1047.0000, -63.489
1047.2000, -63.174
1047.4000, -63.305
1047.6000, -63.182
1047.8000, -62.868
1048.0000, -62.824
1048.2000, -62.462
1048.4000, -62.747
1048.6000, -62.518
1048.8000, -62.205
1049.0000, -62.273
1049.2000, -62.023
1049.4000, -61.905
1049.6000, -62.150
1049.8000, -61.682
1050.0000, -61.789
1050.2000, -61.562
1050.4000, -61.947
1050.6000, -61.710
1050.8000, -61.886
1051.0000, -61.817
1051.2000, -61.580
1051.4000, -61.651
1051.6000, -61.601
1051.8000, -61.746
1052.0000, -61.960
1052.2000, -62.081
1052.4000, -62.058
1052.6000, -62.298
1052.8000, -62.216
1053.0000, -62.336
1053.2000, -62.408
1053.4000, -62.434
1053.6000, -62.611
1053.8000, -62.688
1054.0000, -62.620
1054.2000, -62.621
1054.4000, -62.881
1054.6000, -62.799
1054.8000, -62.899
1055.0000, -62.865
1055.2000, -62.944
1055.4000, -62.996
1055.6000, -63.064
1055.8000, -63.148
1056.0000, -63.175
1056.2000, -63.134
1056.4000, -63.116
1056.6000, -63.108
1056.8000, -63.073
1057.0000, -63.257
1057.2000, -62.892
1057.4000, -63.192
1057.6000, -62.931
1057.8000, -62.857
1058.0000, -62.952
1058.2000, -62.871
1058.4000, -62.834
1058.6000, -62.763
1058.8000, -62.682
1059.0000, -62.637
1059.2000, -62.466
1059.4000, -62.543
1059.6000, -62.434
1059.8000, -62.163
1060.0000, -61.967
1060.2000, -61.871
1060.4000, -61.796
1060.6000, -61.685
1060.8000, -61.435
1061.0000, -61.440
1061.2000, -61.168
1061.4000, -61.092
1061.6000, -60.986
1061.8000, -60.861
1062.0000, -60.591
1062.2000, -60.490
1062.4000, -60.336
1062.6000, -60.033
1062.8000, -59.593
1063.0000, -59.169
1063.2000, -58.603
1063.4000, -58.151
1063.6000, -56.102
1063.8000, -41.367
1064.0000, -37.442
1064.2000, -36.355
1064.4000, -36.383
1064.6000, -36.404
1064.8000, -36.853
1065.0000, -40.665
1065.2000, -53.935
1065.4000, -58.458
1065.6000, -59.944
1065.8000, -60.035
1066.0000, -60.243
1066.2000, -60.312
1066.4000, -60.609
1066.6000, -60.631
1066.8000, -60.434
1067.0000, -60.620
1067.2000, -60.697
1067.4000, -60.470
1067.6000, -60.418
1067.8000, -60.668
1068.0000, -60.564
1068.2000, -60.644
1068.4000, -60.647
1068.6000, -60.877
1068.8000, -60.817
1069.0000, -60.868
1069.2000, -61.012
1069.4000, -61.167
1069.6000, -61.312
1069.8000, -61.287
1070.0000, -61.349
1070.2000, -61.416
1070.4000, -61.443
1070.6000, -61.514
1070.8000, -61.431
1071.0000, -61.315
1071.2000, -61.362
1071.4000, -61.407
1071.6000, -61.402
1071.8000, -61.413
1072.0000, -61.335
1072.2000, -61.301
1072.4000, -61.142
1072.6000, -61.147
1072.8000, -61.315
1073.0000, -61.217
1073.2000, -61.256
1073.4000, -61.125
1073.6000, -61.006
1073.8000, -60.918
1074.0000, -61.094
1074.2000, -61.018
1074.4000, -60.673
1074.6000, -60.674
1074.8000, -60.709
1075.0000, -60.692
1075.2000, -60.619
1075.4000, -60.536
1075.6000, -60.381
1075.8000, -60.225
1076.0000, -60.172
1076.2000, -60.002
1076.4000, -59.970
1076.6000, -59.876
1076.8000, -59.628
1077.0000, -59.716
1077.2000, -59.440
1077.4000, -59.347
1077.6000, -59.183
1077.8000, -59.446
1078.0000, -58.885
1078.2000, -58.973
1078.4000, -59.005
1078.6000, -58.988
1078.8000, -58.636
1079.0000, -58.559
1079.2000, -58.596
1079.4000, -58.471
1079.6000, -58.429
1079.8000, -58.474
1080.0000, -58.289
1080.2000, -58.222
1080.4000, -58.463
1080.6000, -58.356
1080.8000, -58.422
1081.0000, -58.296
1081.2000, -58.502
1081.4000, -58.375
1081.6000, -58.201
1081.8000, -58.589
1082.0000, -58.759
1082.2000, -58.485
1082.4000, -58.656
1082.6000, -58.957
1082.8000, -58.675
1083.0000, -59.098
1083.2000, -59.075
1083.4000, -58.892
1083.6000, -59.106
1083.8000, -59.058
1084.0000, -59.542
1084.2000, -59.235
1084.4000, -59.296
1084.6000, -59.557
1084.8000, -59.750
1085.0000, -59.905
1085.2000, -59.830
1085.4000, -59.861
1085.6000, -59.786
1085.8000, -60.045
1086.0000, -60.254
1086.2000, -60.322
1086.4000, -60.346
1086.6000, -60.313
1086.8000, -60.282
1087.0000, -60.407
1087.2000, -60.495
1087.4000, -60.359
1087.6000, -60.379
1087.8000, -60.355
1088.0000, -60.291
1088.2000, -60.630
1088.4000, -60.466
1088.6000, -60.566
1088.8000, -60.236
1089.0000, -60.279
1089.2000, -60.312
1089.4000, -60.493
1089.6000, -60.324
1089.8000, -60.359
1090.0000, -60.432
1090.2000, -60.387
1090.4000, -60.459
1090.6000, -60.339
1090.8000, -60.234
1091.0000, -59.981
1091.2000, -60.221
1091.4000, -60.111
1091.6000, -60.058
1091.8000, -60.056
1092.0000, -60.111
1092.2000, -60.256
1092.4000, -60.013
1092.6000, -60.017
1092.8000, -59.970
1093.0000, -59.915
1093.2000, -60.037
1093.4000, -59.745
1093.6000, -59.913
1093.8000, -59.833
1094.0000, -59.906
1094.2000, -59.622
1094.4000, -59.739
1094.6000, -59.648
1094.8000, -59.590
1095.0000, -59.481
1095.2000, -59.571
1095.4000, -59.662
1095.6000, -59.543
1095.8000, -59.624
1096.0000, -59.628
1096.2000, -59.475
1096.4000, -59.311
1096.6000, -59.202
1096.8000, -59.355
1097.0000, -59.359
1097.2000, -59.306
1097.4000, -59.511
1097.6000, -59.407
1097.8000, -59.407
1098.0000, -59.174
1098.2000, -59.218
1098.4000, -59.437
1098.6000, -59.058
1098.8000, -59.319
1099.0000, -59.024
1099.2000, -59.140
1099.4000, -59.058
1099.6000, -58.957
1099.8000, -59.101
1100.0000, -59.182
1100.2000, -59.180
1100.4000, -59.179
1100.6000, -59.233
1100.8000, -59.190
1101.0000, -59.273
1101.2000, -59.266
1101.4000, -59.122
1101.6000, -59.206
1101.8000, -59.089
1102.0000, -59.132
1102.2000, -59.232
1102.4000, -59.276
1102.6000, -59.320
1102.8000, -59.164
1103.0000, -59.193
1103.2000, -59.317
1103.4000, -59.364
1103.6000, -59.310
1103.8000, -59.083
1104.0000, -59.381
1104.2000, -59.154
1104.4000, -59.324
1104.6000, -59.063
1104.8000, -59.340
1105.0000, -59.439
1105.2000, -59.383
1105.4000, -59.320
1105.6000, -59.237
1105.8000, -59.162
1106.0000, -59.160
1106.2000, -59.160
1106.4000, -59.245
1106.6000, -59.270
1106.8000, -59.121
1107.0000, -59.107
1107.2000, -59.243
1107.4000, -59.159
1107.6000, -59.095
1107.8000, -59.141
1108.0000, -58.992
1108.2000, -58.995
1108.4000, -59.094
1108.6000, -59.017
1108.8000, -59.046
1109.0000, -59.064
1109.2000, -58.864
1109.4000, -58.842
1109.6000, -59.060
1109.8000, -58.946
1110.0000, -58.881
1110.2000, -58.794
1110.4000, -58.852
1110.6000, -58.874
1110.8000, -58.898
1111.0000, -58.779
1111.2000, -58.779
1111.4000, -58.843
1111.6000, -58.797
1111.8000, -58.895
1112.0000, -58.875
1112.2000, -58.889
1112.4000, -58.783
1112.6000, -58.887
1112.8000, -58.819
1113.0000, -58.808
1113.2000, -58.844
1113.4000, -58.776
1113.6000, -59.018
1113.8000, -58.944
1114.0000, -58.958
1114.2000, -58.876
1114.4000, -58.919
1114.6000, -58.895
1114.8000, -58.831
1115.0000, -58.896
1115.2000, -58.952
1115.4000, -58.948
1115.6000, -58.890
1115.8000, -58.889
1116.0000, -58.889
1116.2000, -59.039
1116.4000, -58.940
1116.6000, -58.914
1116.8000, -58.976
1117.0000, -58.961
1117.2000, -59.164
1117.4000, -59.002
1117.6000, -58.932
1117.8000, -58.869
1118.0000, -58.914
1118.2000, -59.001
1118.4000, -58.968
1118.6000, -59.092
1118.8000, -58.970
1119.0000, -58.970
1119.2000, -59.131
1119.4000, -59.057
1119.6000, -59.067
1119.8000, -59.076
1120.0000, -59.250
1120.2000, -59.224
1120.4000, -58.965
1120.6000, -59.154
1120.8000, -59.159
1121.0000, -59.267
1121.2000, -59.180
1121.4000, -59.190
1121.6000, -59.129
1121.8000, -59.298
1122.0000, -59.254
1122.2000, -59.135
1122.4000, -59.271
1122.6000, -59.246
1122.8000, -59.180
1123.0000, -59.221
1123.2000, -59.355
1123.4000, -59.319
1123.6000, -59.390
1123.8000, -59.372
1124.0000, -59.519
1124.2000, -59.489
1124.4000, -59.708
1124.6000, -59.574
1124.8000, -59.681
1125.0000, -59.742
1125.2000, -59.848
1125.4000, -59.945
1125.6000, -59.735
1125.8000, -59.930
1126.0000, -59.707
1126.2000, -59.745
1126.4000, -59.915
1126.6000, -59.876
1126.8000, -59.943
1127.0000, -59.946
1127.2000, -60.098
1127.4000, -60.218
1127.6000, -60.085
1127.8000, -60.066
1128.0000, -60.106
1128.2000, -60.095
1128.4000, -60.322
1128.6000, -60.080
1128.8000, -60.288
1129.0000, -60.196
1129.2000, -60.380
1129.4000, -60.138
1129.6000, -60.125
1129.8000, -60.096
1130.0000, -60.498
1130.2000, -60.363
1130.4000, -60.410
1130.6000, -60.591
1130.8000, -60.412
1131.0000, -60.429
1131.2000, -60.448
1131.4000, -60.463
1131.6000, -60.505
1131.8000, -60.367
1132.0000, -60.556
1132.2000, -60.644
1132.4000, -60.517
1132.6000, -60.591
1132.8000, -60.571
1133.0000, -60.554
1133.2000, -60.609
1133.4000, -60.667
1133.6000, -60.715
1133.8000, -60.769
1134.0000, -60.739
1134.2000, -60.658
1134.4000, -60.804
1134.6000, -60.827
1134.8000, -60.706
1135.0000, -60.990
1135.2000, -60.874
1135.4000, -60.918
1135.6000, -60.832
1135.8000, -60.771
1136.0000, -60.899
1136.2000, -61.128
1136.4000, -61.012
1136.6000, -60.992
1136.8000, -61.018
1137.0000, -61.058
1137.2000, -60.958
1137.4000, -61.063
1137.6000, -60.922
1137.8000, -60.964
1138.0000, -61.062
1138.2000, -61.084
1138.4000, -61.081
1138.6000, -61.120
1138.8000, -61.281
1139.0000, -61.132
1139.2000, -61.027
1139.4000, -61.185
1139.6000, -61.165
1139.8000, -61.185
1140.0000, -61.278
1140.2000, -61.147
1140.4000, -61.348
1140.6000, -61.295
1140.8000, -61.387
1141.0000, -61.389
1141.2000, -61.379
1141.4000, -61.456
1141.6000, -61.414
1141.8000, -61.455
1142.0000, -61.422
1142.2000, -61.499
1142.4000, -61.490
1142.6000, -61.558
1142.8000, -61.404
1143.0000, -61.513
1143.2000, -61.705
1143.4000, -61.526
1143.6000, -61.624
1143.8000, -61.633
1144.0000, -61.564
1144.2000, -61.704
1144.4000, -61.713
1144.6000, -61.700
1144.8000, -61.599
1145.0000, -61.735
1145.2000, -61.623
1145.4000, -61.807
1145.6000, -61.655
1145.8000, -61.726
1146.0000, -61.794
1146.2000, -61.965
1146.4000, -61.868
1146.6000, -61.879
1146.8000, -61.888
1147.0000, -61.864
1147.2000, -62.030
1147.4000, -62.050
1147.6000, -62.003
1147.8000, -62.033
1148.0000, -61.890
1148.2000, -61.905
1148.4000, -62.009
1148.6000, -61.985
1148.8000, -61.936
1149.0000, -62.140
1149.2000, -62.116
1149.4000, -62.012
1149.6000, -62.175
1149.8000, -61.965
1150.0000, -62.010
1150.2000, -62.201
1150.4000, -62.007
1150.6000, -62.000
1150.8000, -62.172
1151.0000, -62.046
1151.2000, -62.095
1151.4000, -62.143
1151.6000, -62.148
1151.8000, -62.062
1152.0000, -62.223
1152.2000, -62.003
1152.4000, -62.228
1152.6000, -62.016
1152.8000, -62.175
1153.0000, -62.126
1153.2000, -62.150
1153.4000, -62.198
1153.6000, -62.137
1153.8000, -62.203
1154.0000, -62.396
1154.2000, -62.275
1154.4000, -62.167
1154.6000, -62.348
1154.8000, -62.289
1155.0000, -62.382
1155.2000, -62.221
1155.4000, -62.225
1155.6000, -62.341
1155.8000, -62.215
1156.0000, -62.417
1156.2000, -62.233
1156.4000, -62.216
1156.6000, -62.185
1156.8000, -62.309
1157.0000, -62.280
1157.2000, -62.328
1157.4000, -62.371
1157.6000, -62.212
1157.8000, -62.380
1158.0000, -62.185
1158.2000, -62.168
1158.4000, -62.168
1158.6000, -62.472
1158.8000, -62.323
1159.0000, -62.277
1159.2000, -62.427
1159.4000, -62.452
1159.6000, -62.235
1159.8000, -62.313
1160.0000, -62.355
1160.2000, -62.407
1160.4000, -62.368
1160.6000, -62.207
1160.8000, -62.368
1161.0000, -62.386
1161.2000, -62.248
1161.4000, -62.303
1161.6000, -62.412
1161.8000, -62.403
1162.0000, -62.292
1162.2000, -62.238
1162.4000, -62.353
1162.6000, -62.388
1162.8000, -62.445
1163.0000, -62.395
1163.2000, -62.460
1163.4000, -62.362
1163.6000, -62.424
1163.8000, -62.444
1164.0000, -62.382
1164.2000, -62.379
1164.4000, -62.330
1164.6000, -62.324
1164.8000, -62.404
1165.0000, -62.422
1165.2000, -62.465
1165.4000, -62.321
1165.6000, -62.375
1165.8000, -62.425
1166.0000, -62.410
1166.2000, -62.354
1166.4000, -62.401
1166.6000, -62.538
1166.8000, -62.542
1167.0000, -62.623
1167.2000, -62.346
1167.4000, -62.345
1167.6000, -62.439
1167.8000, -62.392
1168.0000, -62.461
1168.2000, -62.539
1168.4000, -62.613
1168.6000, -62.668
1168.8000, -62.621
1169.0000, -62.491
1169.2000, -62.634
1169.4000, -62.594
1169.6000, -62.639
1169.8000, -62.694
1170.0000, -62.485
1170.2000, -62.710
1170.4000, -62.594
1170.6000, -62.661
1170.8000, -62.723
1171.0000, -62.667
1171.2000, -62.574
1171.4000, -62.769
1171.6000, -62.650
1171.8000, -62.632
1172.0000, -62.828
1172.2000, -62.712
1172.4000, -62.682
1172.6000, -62.692
1172.8000, -62.682
1173.0000, -62.783
1173.2000, -62.742
1173.4000, -62.874
1173.6000, -62.847
1173.8000, -62.762
1174.0000, -62.904
1174.2000, -62.813
1174.4000, -62.731
1174.6000, -62.858
1174.8000, -62.898
1175.0000, -62.805
1175.2000, -62.941
1175.4000, -62.739
1175.6000, -62.987
1175.8000, -62.883
1176.0000, -63.014
1176.2000, -62.918
1176.4000, -62.925
1176.6000, -63.152
1176.8000, -62.947
1177.0000, -63.094
1177.2000, -63.090
1177.4000, -63.090
1177.6000, -63.249
1177.8000, -63.079
1178.0000, -63.139
1178.2000, -63.077
1178.4000, -63.154
1178.6000, -63.128
1178.8000, -63.169
1179.0000, -63.088
1179.2000, -63.139
1179.4000, -63.193
1179.6000, -63.301
1179.8000, -63.148
1180.0000, -63.168
1180.2000, -63.262
1180.4000, -63.233
1180.6000, -63.254
1180.8000, -63.361
1181.0000, -63.343
1181.2000, -63.271
1181.4000, -63.228
1181.6000, -63.259
1181.8000, -63.348
1182.0000, -63.475
1182.2000, -63.293
1182.4000, -63.463
1182.6000, -63.363
1182.8000, -63.456
1183.0000, -63.442
1183.2000, -63.309
1183.4000, -63.407
1183.6000, -63.489
1183.8000, -63.591
1184.0000, -63.614
1184.2000, -63.489
1184.4000, -63.415
1184.6000, -63.496
1184.8000, -63.394
1185.0000, -63.526
1185.2000, -63.445
1185.4000, -63.643
1185.6000, -63.653
1185.8000, -63.637
1186.0000, -63.629
1186.2000, -63.611
1186.4000, -63.574
1186.6000, -63.736
1186.8000, -63.761
1187.0000, -63.889
1187.2000, -63.802
1187.4000, -63.793
1187.6000, -63.738
1187.8000, -63.819
1188.0000, -63.725
1188.2000, -63.924
1188.4000, -63.752
1188.6000, -63.802
1188.8000, -63.902
1189.0000, -63.892
1189.2000, -63.810
1189.4000, -63.798
1189.6000, -63.915
1189.8000, -63.843
1190.0000, -63.905
1190.2000, -63.918
1190.4000, -63.909
1190.6000, -63.873
1190.8000, -63.916
1191.0000, -64.064
1191.2000, -63.971
1191.4000, -63.943
1191.6000, -63.926
1191.8000, -63.971
1192.0000, -63.965
1192.2000, -63.927
1192.4000, -63.913
1192.6000, -64.261
1192.8000, -64.102
1193.0000, -64.029
1193.2000, -64.019
1193.4000, -64.169
1193.6000, -64.157
1193.8000, -64.155
1194.0000, -64.144
1194.2000, -64.133
1194.4000, -64.062
1194.6000, -64.095
1194.8000, -64.174
1195.0000, -64.170
1195.2000, -64.145
1195.4000, -64.087
1195.6000, -64.203
1195.8000, -64.216
1196.0000, -64.250
1196.2000, -64.201
1196.4000, -64.119
1196.6000, -64.058
1196.8000, -64.320
1197.0000, -64.370
1197.2000, -64.287
1197.4000, -64.297
1197.6000, -64.171
1197.8000, -64.298
1198.0000, -64.254
1198.2000, -64.181
1198.4000, -64.172
1198.6000, -64.237
1198.8000, -64.353
1199.0000, -64.401
1199.2000, -64.427
1199.4000, -64.408
1199.6000, -64.415
1199.8000, -64.321
1200.0000, -64.458
1200.2000, -64.456
1200.4000, -64.401
1200.6000, -64.477
1200.8000, -64.445
1201.0000, -64.572
1201.2000, -64.582
1201.4000, -64.484
1201.6000, -64.330
1201.8000, -64.494
1202.0000, -64.624
1202.2000, -64.422
1202.4000, -64.517
1202.6000, -64.502
1202.8000, -64.523
1203.0000, -64.670
1203.2000, -64.521
1203.4000, -64.536
1203.6000, -64.531
1203.8000, -64.501
1204.0000, -64.810
1204.2000, -64.647
1204.4000, -64.660
1204.6000, -64.645
1204.8000, -64.643
1205.0000, -64.784
1205.2000, -64.584
1205.4000, -64.852
1205.6000, -64.734
1205.8000, -64.677
1206.0000, -64.713
1206.2000, -64.763
1206.4000, -64.733
1206.6000, -64.816
1206.8000, -64.742
1207.0000, -64.787
1207.2000, -64.894
1207.4000, -64.797
1207.6000, -64.826
1207.8000, -64.827
1208.0000, -64.922
1208.2000, -64.897
1208.4000, -64.951
1208.6000, -64.806
1208.8000, -65.106
1209.0000, -64.907
1209.2000, -65.034
1209.4000, -64.928
1209.6000, -64.960
1209.8000, -64.818
1210.0000, -64.887
1210.2000, -65.095
1210.4000, -65.067
1210.6000, -65.025
1210.8000, -65.103
1211.0000, -65.014
1211.2000, -64.979
1211.4000, -65.177
1211.6000, -65.048
1211.8000, -64.939
1212.0000, -65.068
1212.2000, -65.073
1212.4000, -65.047
1212.6000, -65.016
1212.8000, -65.070
1213.0000, -65.083
1213.2000, -65.096
1213.4000, -65.204
1213.6000, -65.212
1213.8000, -65.269
1214.0000, -65.248
1214.2000, -65.059
1214.4000, -65.173
1214.6000, -65.246
1214.8000, -65.324
1215.0000, -65.326
1215.2000, -65.114
1215.4000, -65.210
1215.6000, -65.177
1215.8000, -65.151
1216.0000, -65.238
1216.2000, -65.268
1216.4000, -65.217
1216.6000, -65.253
1216.8000, -65.302
1217.0000, -65.365
1217.2000, -65.216
1217.4000, -65.306
1217.6000, -65.225
1217.8000, -65.313
1218.0000, -65.355
1218.2000, -65.363
1218.4000, -65.310
1218.6000, -65.528
1218.8000, -65.275
1219.0000, -65.413
1219.2000, -65.533
1219.4000, -65.432
1219.6000, -65.497
1219.8000, -65.316
1220.0000, -65.373
1220.2000, -65.616
1220.4000, -65.513
1220.6000, -65.419
1220.8000, -65.439
1221.0000, -65.455
1221.2000, -65.437
1221.4000, -65.460
1221.6000, -65.411
1221.8000, -65.674
1222.0000, -65.586
1222.2000, -65.698
1222.4000, -65.541
1222.6000, -65.382
1222.8000, -65.386
1223.0000, -65.474
1223.2000, -65.728
1223.4000, -65.548
1223.6000, -65.442
1223.8000, -65.656
1224.0000, -65.687
1224.2000, -65.694
1224.4000, -65.651
1224.6000, -65.659
1224.8000, -65.511
1225.0000, -65.592
1225.2000, -65.801
1225.4000, -65.521
1225.6000, -65.729
1225.8000, -65.683
1226.0000, -65.692
1226.2000, -65.660
1226.4000, -65.663
1226.6000, -65.615
1226.8000, -65.642
1227.0000, -65.723
1227.2000, -65.682
1227.4000, -65.766
1227.6000, -65.867
1227.8000, -65.826
1228.0000, -65.853
1228.2000, -65.679
1228.4000, -65.808
1228.6000, -65.698
1228.8000, -65.840
1229.0000, -65.937
1229.2000, -65.810
1229.4000, -65.822
1229.6000, -65.849
1229.8000, -65.838
1230.0000, -65.789
1230.2000, -65.786
1230.4000, -66.113
1230.6000, -65.948
1230.8000, -65.957
1231.0000, -66.041
1231.2000, -65.950
1231.4000, -65.987
1231.6000, -66.083
1231.8000, -66.069
1232.0000, -66.287
1232.2000, -66.076
1232.4000, -65.984
1232.6000, -66.054
1232.8000, -66.189
1233.0000, -66.149
1233.2000, -66.256
1233.4000, -65.980
1233.6000, -66.209
1233.8000, -66.037
1234.0000, -66.192
1234.2000, -66.286
1234.4000, -66.263
1234.6000, -66.278
1234.8000, -66.213
1235.0000, -66.098
1235.2000, -66.501
1235.4000, -66.365
1235.6000, -66.493
1235.8000, -66.377
1236.0000, -66.310
1236.2000, -66.330
1236.4000, -66.446
1236.6000, -66.398
1236.8000, -66.389
1237.0000, -66.466
1237.2000, -66.371
1237.4000, -66.150
1237.6000, -66.479
1237.8000, -66.395
1238.0000, -66.326
1238.2000, -66.370
1238.4000, -66.579
1238.6000, -66.533
1238.8000, -66.633
1239.0000, -66.606
1239.2000, -66.513
1239.4000, -66.496
1239.6000, -66.507
1239.8000, -66.622
1240.0000, -66.730
1240.2000, -66.594
1240.4000, -66.614
1240.6000, -66.634
1240.8000, -66.531
1241.0000, -66.557
1241.2000, -66.711
1241.4000, -66.709
1241.6000, -66.829
1241.8000, -66.760
1242.0000, -66.722
1242.2000, -66.645
1242.4000, -66.852
1242.6000, -66.799
1242.8000, -66.857
1243.0000, -66.679
1243.2000, -66.775
1243.4000, -66.951
1243.6000, -66.906
1243.8000, -66.909
1244.0000, -66.893
1244.2000, -66.921
1244.4000, -66.857
1244.6000, -66.875
1244.8000, -66.879
1245.0000, -67.037
1245.2000, -66.840
1245.4000, -66.817
1245.6000, -66.865
1245.8000, -66.946
1246.0000, -66.986
1246.2000, -67.155
1246.4000, -66.954
1246.6000, -67.179
1246.8000, -66.945
1247.0000, -67.029
1247.2000, -67.191
1247.4000, -67.080
1247.6000, -67.126
1247.8000, -66.948
1248.0000, -67.332
1248.2000, -67.144
1248.4000, -66.901
1248.6000, -67.105
1248.8000, -67.282
1249.0000, -67.360
1249.2000, -67.049
1249.4000, -67.228
1249.6000, -67.183
1249.8000, -67.000
1250.0000, -67.362
1250.2000, -67.401
1250.4000, -66.925
1250.6000, -67.257
1250.8000, -67.359
1251.0000, -67.435
1251.2000, -67.533
1251.4000, -67.281
1251.6000, -67.374
1251.8000, -67.353
1252.0000, -67.318
1252.2000, -67.225
1252.4000, -67.295
1252.6000, -67.433
1252.8000, -67.488
1253.0000, -67.414
1253.2000, -67.361
1253.4000, -67.576
1253.6000, -67.337
1253.8000, -67.601
1254.0000, -67.316
1254.2000, -67.526
1254.4000, -67.514
1254.6000, -67.343
1254.8000, -67.537
1255.0000, -67.392
1255.2000, -67.411
1255.4000, -67.617
1255.6000, -67.487
1255.8000, -67.581
1256.0000, -67.519
1256.2000, -67.428
1256.4000, -67.581
1256.6000, -67.444
1256.8000, -67.702
1257.0000, -67.548
1257.2000, -67.510
1257.4000, -67.635
1257.6000, -67.618
1257.8000, -67.763
1258.0000, -67.789
1258.2000, -67.605
1258.4000, -67.697
1258.6000, -67.698
1258.8000, -67.744
1259.0000, -67.780
1259.2000, -67.703
1259.4000, -67.688
1259.6000, -67.788
1259.8000, -67.555
1260.0000, -67.836
1260.2000, -67.639
1260.4000, -68.013
1260.6000, -67.629
1260.8000, -67.640
1261.0000, -67.711
1261.2000, -67.768
1261.4000, -67.816
1261.6000, -67.909
1261.8000, -67.672
1262.0000, -67.858
1262.2000, -67.892
1262.4000, -67.968
1262.6000, -67.955
1262.8000, -67.806
1263.0000, -67.923
1263.2000, -67.621
1263.4000, -67.778
1263.6000, -67.867
1263.8000, -68.105
1264.0000, -68.014
1264.2000, -67.654
1264.4000, -67.992
1264.6000, -68.124
1264.8000, -67.929
1265.0000, -68.074
1265.2000, -68.089
1265.4000, -67.933
1265.6000, -68.059
1265.8000, -68.166
1266.0000, -68.083
1266.2000, -68.109
1266.4000, -68.043
1266.6000, -68.217
1266.8000, -67.905
1267.0000, -68.233
1267.2000, -67.886
1267.4000, -67.965
1267.6000, -68.075
1267.8000, -68.082
1268.0000, -68.130
1268.2000, -67.983
1268.4000, -68.316
1268.6000, -68.023
1268.8000, -68.025
1269.0000, -68.281
1269.2000, -68.264
1269.4000, -68.091
1269.6000, -68.094
1269.8000, -68.297
1270.0000, -68.287
1270.2000, -68.205
1270.4000, -68.228
1270.6000, -68.278
1270.8000, -68.167
1271.0000, -68.231
1271.2000, -68.378
1271.4000, -68.313
1271.6000, -68.316
1271.8000, -68.393
1272.0000, -68.395
1272.2000, -68.370
1272.4000, -68.342
1272.6000, -68.271
1272.8000, -68.345
1273.0000, -68.159
1273.2000, -68.334
1273.4000, -68.280
1273.6000, -68.686
1273.8000, -68.476
1274.0000, -68.503
1274.2000, -68.214
1274.4000, -68.283
1274.6000, -68.510
1274.8000, -68.494
1275.0000, -68.380
1275.2000, -68.497
1275.4000, -68.398
1275.6000, -68.543
1275.8000, -68.423
1276.0000, -68.416
1276.2000, -68.595
1276.4000, -68.729
1276.6000, -68.428
1276.8000, -68.345
1277.0000, -68.559
1277.2000, -68.401
1277.4000, -68.378
1277.6000, -68.469
1277.8000, -68.286
1278.0000, -68.497
1278.2000, -68.494
1278.4000, -68.648
1278.6000, -68.800
1278.8000, -68.897
1279.0000, -68.627
1279.2000, -68.506
1279.4000, -68.903
1279.6000, -68.467
1279.8000, -68.711
1280.0000, -68.713
1280.2000, -68.612
1280.4000, -68.716
1280.6000, -68.690
1280.8000, -68.814
1281.0000, -68.816
1281.2000, -68.759
1281.4000, -68.792
1281.6000, -68.826
1281.8000, -68.885
1282.0000, -68.821
1282.2000, -68.836
1282.4000, -68.813
1282.6000, -68.598
1282.8000, -68.754
1283.0000, -68.645
1283.2000, -68.979
1283.4000, -68.811
1283.6000, -68.987
1283.8000, -68.861
1284.0000, -68.998
1284.2000, -69.189
1284.4000, -68.972
1284.6000, -68.849
1284.8000, -68.891
1285.0000, -68.816
1285.2000, -68.982
1285.4000, -68.938
1285.6000, -68.976
1285.8000, -69.064
1286.0000, -68.999
1286.2000, -69.056
1286.4000, -68.928
1286.6000, -69.140
1286.8000, -69.325
1287.0000, -69.026
1287.2000, -69.145
1287.4000, -69.046
1287.6000, -69.214
1287.8000, -69.085
1288.0000, -69.423
1288.2000, -69.336
1288.4000, -68.969
1288.6000, -69.167
1288.8000, -69.178
1289.0000, -69.063
1289.2000, -69.058
1289.4000, -69.109
1289.6000, -69.569
1289.8000, -69.164
1290.0000, -69.226
1290.2000, -69.143
1290.4000, -69.177
1290.6000, -69.296
1290.8000, -69.118
1291.0000, -69.523
1291.2000, -69.079
1291.4000, -69.065
1291.6000, -69.003
1291.8000, -69.237
1292.0000, -69.445
1292.2000, -69.183
1292.4000, -69.272
1292.6000, -69.529
1292.8000, -69.370
1293.0000, -69.347
1293.2000, -69.195
1293.4000, -69.439
1293.6000, -69.479
1293.8000, -69.409
1294.0000, -69.492
1294.2000, -69.418
1294.4000, -69.458
1294.6000, -69.376
1294.8000, -69.699
1295.0000, -69.595
1295.2000, -69.290
1295.4000, -69.496
1295.6000, -69.534
1295.8000, -69.584
1296.0000, -69.559
1296.2000, -69.443
1296.4000, -69.608
1296.6000, -69.566
1296.8000, -69.573
1297.0000, -69.456
1297.2000, -69.562
1297.4000, -69.795
1297.6000, -69.830
1297.8000, -69.793
1298.0000, -69.476
1298.2000, -69.668
1298.4000, -69.593
1298.6000, -69.525
1298.8000, -69.624
1299.0000, -69.696
1299.2000, -69.841
1299.4000, -69.813
1299.6000, -69.446
1299.8000, -69.683
1300.0000, -69.638
1300.2000, -69.792
1300.4000, -69.947
1300.6000, -69.568
1300.8000, -69.628
1301.0000, -69.694
1301.2000, -69.771
1301.4000, -69.872
1301.6000, -69.700
1301.8000, -69.970
1302.0000, -69.873
1302.2000, -69.749
1302.4000, -69.821
1302.6000, -69.954
1302.8000, -69.887
1303.0000, -69.953
1303.2000, -70.223
1303.4000, -69.920
1303.6000, -69.845
1303.8000, -70.155
1304.0000, -69.923
1304.2000, -69.726
1304.4000, -69.842
1304.6000, -69.841
1304.8000, -69.828
1305.0000, -69.831
1305.2000, -69.861
1305.4000, -70.157
1305.6000, -69.918
1305.8000, -69.873
1306.0000, -69.684
1306.2000, -70.127
1306.4000, -70.108
1306.6000, -70.212
1306.8000, -69.840
1307.0000, -69.903
1307.2000, -70.064
1307.4000, -70.177
1307.6000, -70.036
1307.8000, -70.251
1308.0000, -70.089
1308.2000, -70.095
1308.4000, -70.207
1308.6000, -70.111
1308.8000, -70.207
1309.0000, -70.149
1309.2000, -70.223
1309.4000, -70.012
1309.6000, -70.198
1309.8000, -70.033
1310.0000, -70.225
1310.2000, -70.054
1310.4000, -70.103
1310.6000, -69.844
1310.8000, -70.168
1311.0000, -70.191
1311.2000, -70.515
1311.4000, -70.222
1311.6000, -70.330
1311.8000, -70.587
1312.0000, -70.197
1312.2000, -70.406
1312.4000, -70.321
1312.6000, -70.130
1312.8000, -70.598
1313.0000, -70.537
1313.2000, -70.399
1313.4000, -70.373
1313.6000, -70.329
1313.8000, -69.993
1314.0000, -70.336
1314.2000, -70.393
1314.4000, -70.240
1314.6000, -70.405
1314.8000, -70.267
1315.0000, -70.405
1315.2000, -70.614
1315.4000, -70.394
1315.6000, -70.654
1315.8000, -70.518
1316.0000, -70.540
1316.2000, -70.206
1316.4000, -70.616
1316.6000, -70.192
1316.8000, -70.381
1317.0000, -70.536
1317.2000, -70.613
1317.4000, -70.639
1317.6000, -70.711
1317.8000, -70.511
1318.0000, -70.465
1318.2000, -70.590
1318.4000, -70.627
1318.6000, -70.757
1318.8000, -70.712
1319.0000, -71.016
1319.2000, -70.431
1319.4000, -70.718
1319.6000, -70.556
1319.8000, -70.356
1320.0000, -70.494
1320.2000, -70.488
1320.4000, -70.557
1320.6000, -70.479
1320.8000, -70.851
1321.0000, -70.218
1321.2000, -70.574
1321.4000, -70.560
1321.6000, -71.078
1321.8000, -70.637
1322.0000, -70.688
1322.2000, -70.584
1322.4000, -70.513
1322.6000, -70.606
1322.8000, -70.553
1323.0000, -70.993
1323.2000, -71.179
1323.4000, -70.908
1323.6000, -70.654
1323.8000, -70.522
1324.0000, -70.731
1324.2000, -71.010
1324.4000, -70.804
1324.6000, -70.810
1324.8000, -70.913
1325.0000, -71.249
1325.2000, -70.561
1325.4000, -70.915
1325.6000, -70.817
1325.8000, -70.960
1326.0000, -70.936
1326.2000, -70.762
1326.4000, -70.676
1326.6000, -70.942
1326.8000, -71.121
1327.0000, -71.160
1327.2000, -71.220
1327.4000, -71.004
1327.6000, -71.240
1327.8000, -70.924
1328.0000, -71.192
1328.2000, -71.321
1328.4000, -71.378
1328.6000, -70.964
1328.8000, -71.101
1329.0000, -71.048
1329.2000, -70.809
1329.4000, -71.036
1329.6000, -70.924
1329.8000, -70.963
1330.0000, -71.123
1330.2000, -70.941
1330.4000, -71.033
1330.6000, -71.275
1330.8000, -71.480
1331.0000, -71.285
1331.2000, -71.266
1331.4000, -71.055
1331.6000, -71.070
1331.8000, -71.302
1332.0000, -71.534
1332.2000, -71.468
1332.4000, -71.228
1332.6000, -71.389
1332.8000, -71.107
1333.0000, -71.593
1333.2000, -71.305
1333.4000, -71.703
1333.6000, -71.392
1333.8000, -71.045
1334.0000, -71.160
1334.2000, -71.362
1334.4000, -71.511
1334.6000, -71.100
1334.8000, -71.282
1335.0000, -71.337
1335.2000, -71.943
1335.4000, -71.698
1335.6000, -71.392
1335.8000, -71.541
1336.0000, -71.516
1336.2000, -71.686
1336.4000, -71.408
1336.6000, -71.810
1336.8000, -71.538
1337.0000, -71.591
1337.2000, -71.432
1337.4000, -71.695
1337.6000, -71.808
1337.8000, -71.529
1338.0000, -71.377
1338.2000, -71.551
1338.4000, -71.877
1338.6000, -71.407
1338.8000, -71.564
1339.0000, -71.552
1339.2000, -71.236
1339.4000, -71.560
1339.6000, -71.865
1339.8000, -71.963
1340.0000, -71.478
1340.2000, -71.387
1340.4000, -71.651
1340.6000, -71.663
1340.8000, -71.816
1341.0000, -72.057
1341.2000, -71.833
1341.4000, -71.703
1341.6000, -71.766
1341.8000, -71.775
1342.0000, -71.676
1342.2000, -71.759
1342.4000, -71.659
1342.6000, -71.858
1342.8000, -71.674
1343.0000, -71.932
1343.2000, -71.492
1343.4000, -72.102
1343.6000, -72.124
1343.8000, -72.231
1344.0000, -72.357
1344.2000, -71.974
1344.4000, -71.602
1344.6000, -71.892
1344.8000, -71.965
1345.0000, -71.990
1345.2000, -71.733
1345.4000, -72.062
1345.6000, -72.057
1345.8000, -72.159
1346.0000, -72.297
1346.2000, -72.403
1346.4000, -72.603
1346.6000, -71.996
1346.8000, -72.128
1347.0000, -72.073
1347.2000, -72.170
1347.4000, -72.403
1347.6000, -72.362
1347.8000, -72.380
1348.0000, -72.646
1348.2000, -71.897
1348.4000, -71.941
1348.6000, -72.242
1348.8000, -72.313
1349.0000, -72.132
1349.2000, -72.080
1349.4000, -72.212
1349.6000, -72.170
1349.8000, -72.597
1350.0000, -72.491
1350.2000, -72.053
1350.4000, -72.235
1350.6000, -72.636
1350.8000, -72.222
1351.0000, -72.610
1351.2000, -72.709
1351.4000, -72.222
1351.6000, -72.586
1351.8000, -72.874
1352.0000, -72.655
1352.2000, -72.981
1352.4000, -72.542
1352.6000, -72.579
1352.8000, -72.772
1353.0000, -72.772
1353.2000, -72.544
1353.4000, -72.772
1353.6000, -72.621
1353.8000, -73.106
1354.0000, -73.029
1354.2000, -72.644
1354.4000, -72.862
1354.6000, -73.069
1354.8000, -72.906
1355.0000, -73.110
1355.2000, -73.116
1355.4000, -73.421
1355.6000, -73.286
1355.8000, -73.214
1356.0000, -73.200
1356.2000, -73.052
1356.4000, -73.445
1356.6000, -73.073
1356.8000, -73.338
1357.0000, -73.353
1357.2000, -73.295
1357.4000, -73.629
1357.6000, -73.291
1357.8000, -73.181
1358.0000, -72.767
1358.2000, -73.501
1358.4000, -73.525
1358.6000, -73.665
1358.8000, -73.323
1359.0000, -73.347
1359.2000, -73.515
1359.4000, -73.599
1359.6000, -73.589
1359.8000, -73.521
1360.0000, -73.231
1360.2000, -72.876
1360.4000, -73.454
1360.6000, -74.086
1360.8000, -73.770
1361.0000, -73.767
1361.2000, -74.199
1361.4000, -74.056
1361.6000, -74.058
1361.8000, -74.305
1362.0000, -74.887
1362.2000, -74.847
1362.4000, -74.421
1362.6000, -73.865
1362.8000, -73.828
1363.0000, -73.619
1363.2000, -73.528
1363.4000, -73.410
1363.6000, -73.348
1363.8000, -73.616
1364.0000, -74.118
1364.2000, -74.026
1364.4000, -74.579
1364.6000, -75.255
1364.8000, -74.480
1365.0000, -74.847
1365.2000, -74.528
1365.4000, -74.304
1365.6000, -74.599
1365.8000, -73.785
1366.0000, -73.680
1366.2000, -73.878
1366.4000, -73.635
1366.6000, -73.838
1366.8000, -74.493
1367.0000, -73.715
1367.2000, -74.138
1367.4000, -74.681
1367.6000, -74.741
1367.8000, -74.153
1368.0000, -74.029
1368.2000, -74.584
1368.4000, -74.492
1368.6000, -74.043
1368.8000, -74.116
1369.0000, -74.163
1369.2000, -73.824
1369.4000, -74.084
1369.6000, -74.352
1369.8000, -74.419
1370.0000, -74.003
1370.2000, -74.557
1370.4000, -74.567
1370.6000, -74.351
1370.8000, -75.022
1371.0000, -75.101
1371.2000, -74.586
1371.4000, -75.019
1371.6000, -74.178
1371.8000, -74.456
1372.0000, -74.985
1372.2000, -74.728
1372.4000, -74.732
1372.6000, -74.542
1372.8000, -74.459
1373.0000, -75.473
1373.2000, -75.298
1373.4000, -74.979
1373.6000, -75.082
1373.8000, -76.004
1374.0000, -74.488
1374.2000, -75.154
1374.4000, -75.039
1374.6000, -74.727
1374.8000, -74.751
1375.0000, -75.504
1375.2000, -74.798
1375.4000, -74.829
1375.6000, -75.358
1375.8000, -75.168
1376.0000, -75.559
1376.2000, -75.308
1376.4000, -75.785
1376.6000, -74.911
1376.8000, -75.894
1377.0000, -75.772
1377.2000, -75.511
1377.4000, -75.329
1377.6000, -75.547
1377.8000, -75.016
1378.0000, -74.618
1378.2000, -75.720
1378.4000, -76.731
1378.6000, -75.625
1378.8000, -75.970
1379.0000, -76.748
1379.2000, -75.466
1379.4000, -76.648
1379.6000, -76.162
1379.8000, -76.013
1380.0000, -76.200
1380.2000, -77.094
1380.4000, -76.578
1380.6000, -77.538
1380.8000, -77.392
1381.0000, -76.817
1381.2000, -76.424
1381.4000, -76.119
1381.6000, -76.334
1381.8000, -76.256
1382.0000, -76.426
1382.2000, -77.010
1382.4000, -78.786
1382.6000, -77.522
1382.8000, -77.529
1383.0000, -77.166
1383.2000, -76.644
1383.4000, -77.406
1383.6000, -77.403
1383.8000, -76.685
1384.0000, -77.556
1384.2000, -77.703
1384.4000, -77.256
1384.6000, -77.567
1384.8000, -77.353
1385.0000, -77.359
1385.2000, -77.477
1385.4000, -78.095
1385.6000, -78.221
1385.8000, -77.070
1386.0000, -77.223
1386.2000, -77.698
1386.4000, -77.653
1386.6000, -79.304
1386.8000, -78.068
1387.0000, -76.789
1387.2000, -76.877
1387.4000, -78.265
1387.6000, -77.587
1387.8000, -77.803
1388.0000, -78.844
1388.2000, -80.093
1388.4000, -79.129
1388.6000, -77.696
1388.8000, -78.152
1389.0000, -77.706
1389.2000, -78.375
1389.4000, -77.816
1389.6000, -77.903
1389.8000, -77.960
1390.0000, -78.242
1390.2000, -78.192
1390.4000, -77.727
1390.6000, -78.184
1390.8000, -78.025
1391.0000, -77.747
1391.2000, -77.165
1391.4000, -79.211
1391.6000, -77.895
1391.8000, -77.685
1392.0000, -79.309
1392.2000, -78.487
1392.4000, -81.440
1392.6000, -80.297
1392.8000, -79.326
1393.0000, -77.915
1393.2000, -78.136
1393.4000, -78.507
1393.6000, -77.957
1393.8000, -78.492
1394.0000, -77.981
1394.2000, -79.542
1394.4000, -79.093
1394.6000, -80.403
1394.8000, -78.523
1395.0000, -78.555
1395.2000, -79.707
1395.4000, -79.979
1395.6000, -80.137
1395.8000, -79.522
1396.0000, -79.724
1396.2000, -80.108
1396.4000, -79.896
1396.6000, -80.409
1396.8000, -79.015
1397.0000, -79.027
1397.2000, -78.029
1397.4000, -79.422
1397.6000, -78.707
1397.8000, -81.397
1398.0000, -80.000
1398.2000, -79.976
1398.4000, -79.189
1398.6000, -81.070
1398.8000, -81.588
1399.0000, -78.605
1399.2000, -79.801
1399.4000, -78.940
1399.6000, -78.325
1399.8000, -79.673
1400.0000, -81.318
1400.2000, -82.364
1400.4000, -84.225
1400.6000, -81.714
1400.8000, -81.766
1401.0000, -82.239
1401.2000, -79.685
1401.4000, -79.261
1401.6000, -79.099
1401.8000, -82.785
1402.0000, -80.193
1402.2000, -80.403
1402.4000, -78.747
1402.6000, -79.267
1402.8000, -80.106
1403.0000, -79.046
1403.2000, -79.319
1403.4000, -79.540
1403.6000, -77.989
1403.8000, -79.193
1404.0000, -79.916
1404.2000, -80.042
1404.4000, -78.582
1404.6000, -80.078
1404.8000, -79.818
1405.0000, -83.505
1405.2000, -84.353
1405.4000, -82.438
1405.6000, -80.593
1405.8000, -79.555
1406.0000, -80.516
1406.2000, -79.465
1406.4000, -80.897
1406.6000, -78.577
1406.8000, -83.379
1407.0000, -82.222
1407.2000, -82.229
1407.4000, -82.159
1407.6000, -79.983
1407.8000, -80.869
1408.0000, -79.992
1408.2000, -80.868
1408.4000, -79.453
1408.6000, -81.852
1408.8000, -81.502
1409.0000, -79.472
1409.2000, -81.927
1409.4000, -83.010
1409.6000, -81.272
1409.8000, -79.262
1410.0000, -79.087
1410.2000, -80.040
1410.4000, -79.963
1410.6000, -79.176
1410.8000, -78.314
1411.0000, -79.647
1411.2000, -80.608
1411.4000, -84.591
1411.6000, -77.885
1411.8000, -79.362
1412.0000, -79.363
1412.2000, -80.083
1412.4000, -79.965
1412.6000, -78.825
1412.8000, -79.795
1413.0000, -78.118
1413.2000, -81.213
1413.4000, -80.782
1413.6000, -79.881
1413.8000, -80.754
1414.0000, -83.211
1414.2000, -81.090
1414.4000, -79.207
1414.6000, -81.502
1414.8000, -79.857
1415.0000, -79.383
1415.2000, -82.074
1415.4000, -79.180
1415.6000, -78.816
1415.8000, -80.613
1416.0000, -80.049
1416.2000, -79.990
1416.4000, -80.908
1416.6000, -78.563
1416.8000, -80.954
1417.0000, -79.659
1417.2000, -80.397
1417.4000, -79.068
1417.6000, -79.231
1417.8000, -77.124
1418.0000, -79.613
1418.2000, -78.915
1418.4000, -78.862
1418.6000, -77.979
1418.8000, -81.305
1419.0000, -80.357
1419.2000, -81.748
1419.4000, -80.188
1419.6000, -81.098
1419.8000, -79.350
1420.0000, -79.661
1420.2000, -80.343
1420.4000, -79.289
1420.6000, -79.191
1420.8000, -79.627
1421.0000, -80.239
1421.2000, -79.596
1421.4000, -79.028
1421.6000, -79.203
1421.8000, -80.150
1422.0000, -77.966
1422.2000, -79.183
1422.4000, -79.417
1422.6000, -79.757
1422.8000, -79.744
1423.0000, -79.884
1423.2000, -79.629
1423.4000, -80.291
1423.6000, -79.007
1423.8000, -83.119
1424.0000, -78.622
1424.2000, -77.987
1424.4000, -79.872
1424.6000, -78.671
1424.8000, -81.301
1425.0000, -80.133
1425.2000, -79.564
1425.4000, -79.058
1425.6000, -80.495
1425.8000, -79.232
1426.0000, -79.158
1426.2000, -79.658
1426.4000, -79.144
1426.6000, -78.537
1426.8000, -80.179
1427.0000, -79.576
1427.2000, -80.754
1427.4000, -79.305
1427.6000, -79.287
1427.8000, -82.104
1428.0000, -81.160
1428.2000, -80.393
1428.4000, -77.704
1428.6000, -79.503
1428.8000, -79.031
1429.0000, -79.298
1429.2000, -79.004
1429.4000, -83.108
1429.6000, -78.968
1429.8000, -79.973
1430.0000, -80.443
1430.2000, -78.771
1430.4000, -78.268
1430.6000, -78.805
1430.8000, -79.313
1431.0000, -78.920
1431.2000, -81.338
1431.4000, -80.581
1431.6000, -80.035
1431.8000, -78.490
1432.0000, -78.517
1432.2000, -78.888
1432.4000, -79.323
1432.6000, -78.340
1432.8000, -79.244
1433.0000, -80.252
1433.2000, -81.712
1433.4000, -80.130
1433.6000, -78.458
1433.8000, -80.236
1434.0000, -79.407
1434.2000, -80.388
1434.4000, -79.138
1434.6000, -79.589
1434.8000, -79.775
1435.0000, -80.143
1435.2000, -80.791
1435.4000, -79.847
1435.6000, -79.520
1435.8000, -78.743
1436.0000, -79.170
1436.2000, -79.316
1436.4000, -80.362
1436.6000, -79.806
1436.8000, -80.091
1437.0000, -79.751
1437.2000, -79.470
1437.4000, -79.905
1437.6000, -78.921
1437.8000, -78.799
1438.0000, -79.337
1438.2000, -79.225
1438.4000, -79.648
1438.6000, -78.203
1438.8000, -80.798
1439.0000, -79.845
1439.2000, -78.646
1439.4000, -78.296
1439.6000, -82.578
1439.8000, -79.965
1440.0000, -78.734
1440.2000, -80.732
1440.4000, -81.028
1440.6000, -80.337
1440.8000, -78.791
1441.0000, -80.803
1441.2000, -79.693
1441.4000, -80.084
1441.6000, -79.456
1441.8000, -82.129
1442.0000, -81.558
1442.2000, -81.243
1442.4000, -81.458
1442.6000, -80.152
1442.8000, -79.979
1443.0000, -78.580
1443.2000, -80.508
1443.4000, -80.217
1443.6000, -79.667
1443.8000, -80.406
1444.0000, -81.052
1444.2000, -81.333
1444.4000, -79.160
1444.6000, -80.257
1444.8000, -82.907
1445.0000, -81.310
1445.2000, -80.806
1445.4000, -85.614
1445.6000, -79.859
1445.8000, -80.139
1446.0000, -81.962
1446.2000, -78.861
1446.4000, -84.077
1446.6000, -80.097
1446.8000, -79.827
1447.0000, -79.696
1447.2000, -79.420
1447.4000, -82.786
1447.6000, -81.210
1447.8000, -80.438
1448.0000, -80.821
1448.2000, -79.973
1448.4000, -79.466
1448.6000, -79.774
1448.8000, -80.460
1449.0000, -81.807
1449.2000, -79.193
1449.4000, -80.247
1449.6000, -82.079
1449.8000, -79.491
1450.0000, -79.705
1450.2000, -80.194
1450.4000, -82.472
1450.6000, -80.100
1450.8000, -79.531
1451.0000, -80.025
1451.2000, -81.106
1451.4000, -81.454
1451.6000, -82.198
1451.8000, -84.415
1452.0000, -83.038
1452.2000, -80.235
1452.4000, -82.257
1452.6000, -79.755
1452.8000, -82.696
1453.0000, -81.858
1453.2000, -81.048
1453.4000, -80.542
1453.6000, -80.977
1453.8000, -80.582
1454.0000, -78.978
1454.2000, -84.045
1454.4000, -81.011
1454.6000, -81.342
1454.8000, -79.818
1455.0000, -84.484
1455.2000, -80.039
1455.4000, -85.883
1455.6000, -84.364
1455.8000, -83.794
1456.0000, -82.038
1456.2000, -82.882
1456.4000, -79.248
1456.6000, -80.466
1456.8000, -79.240
1457.0000, -81.455
1457.2000, -81.854
1457.4000, -81.000
1457.6000, -81.068
1457.8000, -80.444
1458.0000, -81.632
1458.2000, -80.986
1458.4000, -78.405
1458.6000, -84.674
1458.8000, -83.933
1459.0000, -83.348
1459.2000, -80.883
1459.4000, -79.750
1459.6000, -80.328
1459.8000, -81.430
1460.0000, -79.907
1460.2000, -80.496
1460.4000, -82.545
1460.6000, -82.947
1460.8000, -80.920
1461.0000, -78.850
1461.2000, -79.067
1461.4000, -81.852
1461.6000, -80.250
1461.8000, -80.938
1462.0000, -81.063
1462.2000, -82.203
1462.4000, -80.377
1462.6000, -81.943
1462.8000, -83.154
1463.0000, -83.860
1463.2000, -80.819
1463.4000, -81.679
1463.6000, -83.743
1463.8000, -80.783
1464.0000, -81.652
1464.2000, -81.877
1464.4000, -81.232
1464.6000, -82.502
1464.8000, -82.578
1465.0000, -82.977
1465.2000, -83.386
1465.4000, -84.555
1465.6000, -80.823
1465.8000, -80.659
1466.0000, -78.647
1466.2000, -83.198
1466.4000, -83.869
1466.6000, -82.774
1466.8000, -83.392
1467.0000, -80.147
1467.2000, -81.870
1467.4000, -83.252
1467.6000, -79.397
1467.8000, -81.342
1468.0000, -81.851
1468.2000, -80.741
1468.4000, -82.670
1468.6000, -80.964
1468.8000, -82.040
1469.0000, -84.211
1469.2000, -81.784
1469.4000, -80.386
1469.6000, -83.719
1469.8000, -85.720
1470.0000, -81.335
1470.2000, -81.813
1470.4000, -82.498
1470.6000, -83.097
1470.8000, -80.049
1471.0000, -82.713
1471.2000, -80.829
1471.4000, -82.484
1471.6000, -80.682
1471.8000, -85.525
1472.0000, -82.130
1472.2000, -80.257
1472.4000, -83.887
1472.6000, -88.486
1472.8000, -80.439
1473.0000, -82.184
1473.2000, -81.764
1473.4000, -79.975
1473.6000, -84.405
1473.8000, -82.265
1474.0000, -81.583
1474.2000, -79.769
1474.4000, -87.082
1474.6000, -82.111
1474.8000, -81.802
1475.0000, -81.414
1475.2000, -79.905
1475.4000, -82.509
1475.6000, -82.666
1475.8000, -83.986
1476.0000, -83.765
1476.2000, -83.088
1476.4000, -82.582
1476.6000, -83.471
1476.8000, -79.515
1477.0000, -83.693
1477.2000, -80.814
1477.4000, -83.028
1477.6000, -85.654
1477.8000, -82.223
1478.0000, -86.988
1478.2000, -84.731
1478.4000, -81.644
1478.6000, -80.789
1478.8000, -80.551
1479.0000, -84.077
1479.2000, -83.202
1479.4000, -89.517
1479.6000, -82.764
1479.8000, -83.477
1480.0000, -81.648
1480.2000, -89.382
1480.4000, -80.158
1480.6000, -83.480
1480.8000, -85.146
1481.0000, -81.764
1481.2000, -83.075
1481.4000, -83.175
1481.6000, -82.448
1481.8000, -82.284
1482.0000, -80.332
1482.2000, -83.743
1482.4000,-210.000
1482.6000, -83.326
1482.8000, -80.129
1483.0000, -84.571
1483.2000, -83.809
1483.4000, -86.232
1483.6000, -86.980
1483.8000, -81.247
1484.0000, -84.001
1484.2000, -84.186
1484.4000, -80.699
1484.6000, -91.273
1484.8000, -83.044
1485.0000, -88.511
1485.2000, -85.828
1485.4000, -80.965
1485.6000, -81.023
1485.8000, -88.524
1486.0000, -84.360
1486.2000, -92.192
1486.4000, -86.378
1486.6000, -82.216
1486.8000, -85.895
1487.0000, -85.348
1487.2000, -86.938
1487.4000, -82.582
1487.6000, -86.207
1487.8000, -81.669
1488.0000, -83.162
1488.2000, -81.719
1488.4000, -81.218
1488.6000, -82.814
1488.8000, -85.885
1489.0000, -82.911
1489.2000, -81.529
1489.4000, -81.646
1489.6000, -82.711
1489.8000, -97.298
1490.0000, -81.358
1490.2000, -83.656
1490.4000, -82.610
1490.6000, -84.935
1490.8000, -82.572
1491.0000, -82.097
1491.2000, -82.960
1491.4000, -84.030
1491.6000, -83.777
1491.8000, -84.924
1492.0000, -91.773
1492.2000, -82.326
1492.4000, -81.605
1492.6000, -81.145
1492.8000, -84.451
1493.0000, -83.194
1493.2000, -83.500
1493.4000, -85.429
1493.6000, -82.564
1493.8000, -86.601
1494.0000, -82.485
1494.2000, -80.688
1494.4000,-210.000
1494.6000, -82.028
1494.8000, -91.362
1495.0000, -85.804
1495.2000, -83.475
1495.4000, -82.753
1495.6000, -80.682
1495.8000, -83.084
1496.0000, -81.352
1496.2000,-104.048
1496.4000, -83.846
1496.6000, -81.846
1496.8000, -85.313
1497.0000, -83.250
1497.2000, -83.954
1497.4000, -83.009
1497.6000, -83.321
1497.8000, -80.907
1498.0000, -95.999
1498.2000, -81.207
1498.4000, -90.061
1498.6000, -82.681
1498.8000, -84.683
1499.0000, -85.074
1499.2000, -84.720
1499.4000,-210.000
1499.6000, -88.474
1499.8000, -81.669
1500.0000, -82.092
1500.2000,-210.000
1500.4000,-210.000
1500.6000, -92.320
1500.8000, -82.767
1501.0000, -86.921
1501.2000, -84.219
1501.4000, -92.506
1501.6000, -82.768
1501.8000, -83.790
1502.0000, -82.153
1502.2000, -83.644
1502.4000, -84.199
1502.6000, -83.625
1502.8000, -82.144
1503.0000, -83.623
1503.2000, -83.592
1503.4000, -86.318
1503.6000, -85.756
1503.8000, -83.437
1504.0000, -82.906
1504.2000, -83.857
1504.4000, -93.743
1504.6000, -82.262
1504.8000, -89.748
1505.0000, -81.040
1505.2000, -84.139
1505.4000, -83.588
1505.6000, -85.061
1505.8000, -86.979
1506.0000, -86.186
1506.2000, -83.059
1506.4000, -83.186
1506.6000, -91.292
1506.8000, -81.375
1507.0000, -84.056
1507.2000, -82.608
1507.4000, -83.731
1507.6000, -86.982
1507.8000, -89.047
1508.0000, -84.723
1508.2000, -84.199
1508.4000, -81.630
1508.6000, -87.847
1508.8000, -84.120
1509.0000, -97.591
1509.2000, -83.774
1509.4000, -96.742
1509.6000, -88.642
1509.8000, -91.795
1510.0000, -84.952
1510.2000, -83.393
1510.4000, -84.008
1510.6000, -80.732
1510.8000, -86.298
1511.0000, -81.848
1511.2000, -85.964
1511.4000, -80.862
1511.6000,-210.000
1511.8000, -81.755
1512.0000, -84.566
1512.2000,-210.000
1512.4000, -82.668
1512.6000, -85.078
1512.8000, -81.576
1513.0000,-210.000
1513.2000, -83.110
1513.4000, -84.722
1513.6000, -84.540
1513.8000,-210.000
1514.0000,-210.000
1514.2000, -82.848
1514.4000, -83.925
1514.6000,-210.000
1514.8000, -82.225
1515.0000, -81.340
1515.2000, -92.794
1515.4000, -86.009
1515.6000, -82.663
1515.8000, -81.115
1516.0000, -84.211
1516.2000, -83.554
1516.4000, -82.765
1516.6000, -92.642
1516.8000, -84.043
1517.0000, -87.883
1517.2000, -89.026
1517.4000,-210.000
1517.6000, -85.569
1517.8000, -82.150
1518.0000, -81.138
1518.2000, -85.007
1518.4000, -85.360
1518.6000, -83.552
1518.8000, -83.052
1519.0000,-210.000
1519.2000, -91.624
1519.4000, -84.589
1519.6000, -86.207
1519.8000, -89.715
1520.0000, -86.458
1520.2000, -84.182
1520.4000, -83.029
1520.6000, -88.711
1520.8000, -83.496
1521.0000, -82.501
1521.2000, -90.044
1521.4000, -85.016
1521.6000, -84.708
1521.8000, -84.316
1522.0000, -84.357
1522.2000, -97.227
1522.4000,-210.000
1522.6000, -82.697
1522.8000, -82.184
1523.0000, -81.942
1523.2000,-210.000
1523.4000,-210.000
1523.6000, -85.345
1523.8000, -84.562
1524.0000, -85.487
1524.2000, -86.056
1524.4000, -83.242
1524.6000, -87.244
1524.8000, -83.196
1525.0000, -88.651
1525.2000, -84.118
1525.4000, -88.164
1525.6000, -84.590
1525.8000, -80.973
1526.0000, -85.121
1526.2000, -83.577
1526.4000, -83.649
1526.6000, -91.351
1526.8000, -88.672
1527.0000, -85.897
1527.2000, -85.573
1527.4000, -83.185
1527.6000, -82.357
1527.8000, -86.040
1528.0000, -89.458
1528.2000, -87.326
1528.4000,-210.000
1528.6000, -86.143
1528.8000, -85.486
1529.0000, -86.033
1529.2000, -88.161
1529.4000, -89.755
1529.6000, -85.378
1529.8000, -82.991
1530.0000, -82.394
1530.2000, -83.202
1530.4000, -84.716
1530.6000,-210.000
1530.8000, -88.144
1531.0000,-210.000
1531.2000, -82.683
1531.4000, -91.116
1531.6000, -89.613
1531.8000, -89.415
1532.0000, -81.404
1532.2000, -82.302
1532.4000, -86.352
1532.6000, -84.224
1532.8000, -91.181
1533.0000,-210.000
1533.2000, -91.914
1533.4000,-210.000
1533.6000, -83.733
1533.8000, -85.129
1534.0000, -80.826
1534.2000, -81.697
1534.4000, -80.964
1534.6000,-210.000
1534.8000,-210.000
1535.0000, -86.688
1535.2000, -83.850
1535.4000,-210.000
1535.6000, -84.422
1535.8000, -88.229
1536.0000, -92.831
1536.2000, -86.868
1536.4000, -89.564
1536.6000, -87.086
1536.8000, -85.712
1537.0000,-109.098
1537.2000, -80.612
1537.4000,-210.000
1537.6000, -83.789
1537.8000, -82.395
1538.0000, -86.595
1538.2000, -85.461
1538.4000, -88.835
1538.6000, -84.723
1538.8000,-210.000
1539.0000, -94.634
1539.2000, -94.862
1539.4000, -88.582
1539.6000, -87.494
1539.8000, -92.328
1540.0000,-210.000
1540.2000, -83.086
1540.4000, -93.099
1540.6000, -85.913
1540.8000, -87.866
1541.0000, -85.178
1541.2000,-114.906
1541.4000, -85.459
1541.6000, -90.258
1541.8000, -83.825
1542.0000, -95.514
1542.2000,-210.000
1542.4000, -84.030
1542.6000, -85.481
1542.8000, -83.952
1543.0000,-210.000
1543.2000,-210.000
1543.4000,-210.000
1543.6000, -93.563
1543.8000, -84.403
1544.0000, -83.800
1544.2000, -84.879
1544.4000, -82.957
1544.6000,-210.000
1544.8000, -87.777
1545.0000, -85.420
1545.2000,-210.000
1545.4000, -86.872
1545.6000, -84.988
1545.8000, -85.161
1546.0000, -85.549
1546.2000, -85.010
1546.4000, -97.530
1546.6000, -90.573
1546.8000, -82.877
1547.0000, -84.083
1547.2000, -93.731
1547.4000, -89.582
1547.6000,-210.000
1547.8000, -88.414
1548.0000, -84.839
1548.2000,-210.000
1548.4000, -86.526
1548.6000, -86.387
1548.8000, -84.812
1549.0000, -84.172
1549.2000, -87.511
1549.4000, -91.085
1549.6000,-102.570
1549.8000, -87.755
1550.0000, -88.073
1550.2000, -86.454
1550.4000, -81.954
1550.6000, -86.530
1550.8000, -84.888
1551.0000, -89.869
1551.2000, -86.805
1551.4000, -82.390
1551.6000, -86.183
1551.8000, -87.178
1552.0000,-210.000
1552.2000,-210.000
1552.4000, -86.118
1552.6000,-210.000
1552.8000,-210.000
1553.0000, -85.298
1553.2000, -87.064
1553.4000,-210.000
1553.6000, -91.445
1553.8000,-113.394
1554.0000, -93.756
1554.2000, -96.150
1554.4000, -81.541
1554.6000,-210.000
1554.8000,-210.000
1555.0000,-210.000
1555.2000, -87.664
1555.4000, -84.099
1555.6000, -84.797
1555.8000, -83.796
1556.0000, -83.289
1556.2000,-210.000
1556.4000, -84.889
1556.6000,-210.000
1556.8000, -85.372
1557.0000, -85.969
1557.2000,-210.000
1557.4000, -83.476
1557.6000, -84.028
1557.8000, -91.961
1558.0000,-210.000
1558.2000,-210.000
1558.4000,-210.000
1558.6000,-210.000
1558.8000,-210.000
1559.0000, -89.004
1559.2000,-210.000
1559.4000, -90.437
1559.6000, -90.007
1559.8000,-210.000
1560.0000,-210.000
1560.2000, -86.335
1560.4000,-210.000
1560.6000,-210.000
1560.8000,-210.000
1561.0000,-210.000
1561.2000,-210.000
1561.4000, -82.510
1561.6000, -83.224
1561.8000, -87.916
1562.0000, -83.770
1562.2000, -89.262
1562.4000,-210.000
1562.6000,-210.000
1562.8000, -82.354
1563.0000, -86.479
1563.2000, -84.274
1563.4000,-210.000
1563.6000, -85.232
1563.8000, -83.895
1564.0000, -86.626
1564.2000, -89.505
1564.4000, -84.411
1564.6000, -84.788
1564.8000, -85.096
1565.0000, -87.876
1565.2000, -82.950
1565.4000,-210.000
1565.6000, -88.396
1565.8000, -83.674
1566.0000, -84.174
1566.2000, -83.851
1566.4000,-210.000
1566.6000, -85.630
1566.8000,-210.000
1567.0000, -84.889
1567.2000, -85.928
1567.4000, -83.362
1567.6000, -92.401
1567.8000,-210.000
1568.0000,-210.000
1568.2000, -83.939
1568.4000, -85.739
1568.6000, -81.676
1568.8000, -87.741
1569.0000, -82.963
1569.2000,-210.000
1569.4000,-210.000
1569.6000, -81.596
1569.8000,-210.000
1570.0000,-210.000
1570.2000,-210.000
1570.4000, -85.242
1570.6000,-210.000
1570.8000, -88.561
1571.0000, -85.776
1571.2000, -86.307
1571.4000,-210.000
1571.6000, -85.528
1571.8000, -88.278
1572.0000, -90.853
1572.2000, -86.932
1572.4000, -85.560
1572.6000,-210.000
1572.8000,-210.000
1573.0000,-210.000
1573.2000,-210.000
1573.4000, -91.969
1573.6000, -82.285
1573.8000, -90.187
1574.0000,-210.000
1574.2000, -86.945
1574.4000, -85.709
1574.6000, -83.811
1574.8000,-210.000
1575.0000, -84.474
1575.2000, -86.042
1575.4000, -84.770
1575.6000, -96.414
1575.8000, -85.660
1576.0000, -88.344
1576.2000, -88.169
1576.4000,-210.000
1576.6000, -84.116
1576.8000,-210.000
1577.0000, -86.764
1577.2000,-210.000
1577.4000, -95.542
1577.6000,-210.000
1577.8000,-210.000
1578.0000,-210.000
1578.2000,-210.000
1578.4000, -84.467
1578.6000, -87.437
1578.8000, -85.526
1579.0000, -87.759
1579.2000,-210.000
1579.4000,-210.000
1579.6000,-210.000
1579.8000, -93.018
1580.0000, -88.231
1580.2000,-210.000
1580.4000,-210.000
1580.6000, -84.246
1580.8000, -83.377
1581.0000, -86.280
1581.2000, -85.260
1581.4000, -88.116
1581.6000,-210.000
1581.8000, -86.109
1582.0000, -87.156
1582.2000, -91.777
1582.4000, -83.419
1582.6000, -87.706
1582.8000, -88.618
1583.0000, -94.611
1583.2000, -86.439
1583.4000,-210.000
1583.6000,-210.000
1583.8000, -84.278
1584.0000, -91.598
1584.2000,-210.000
1584.4000, -84.356
1584.6000,-210.000
1584.8000,-210.000
1585.0000, -82.931
1585.2000,-210.000
1585.4000,-210.000
1585.6000, -82.069
1585.8000, -86.621
1586.0000,-210.000
1586.2000, -83.518
1586.4000, -86.501
1586.6000, -90.257
1586.8000,-210.000
1587.0000, -82.583
1587.2000,-210.000
1587.4000, -86.987
1587.6000, -84.218
1587.8000, -89.709
1588.0000, -94.092
1588.2000, -83.363
1588.4000,-210.000
1588.6000,-210.000
1588.8000, -88.980
1589.0000, -96.131
1589.2000,-210.000
1589.4000, -85.645
1589.6000, -90.268
1589.8000, -83.906
1590.0000, -86.334
1590.2000, -84.974
1590.4000, -82.121
1590.6000,-210.000
1590.8000,-210.000
1591.0000, -85.391
1591.2000,-210.000
1591.4000, -87.136
1591.6000, -86.746
1591.8000, -83.204
1592.0000, -86.711
1592.2000, -83.831
1592.4000, -89.191
1592.6000, -89.311
1592.8000, -86.889
1593.0000, -84.191
1593.2000, -86.702
1593.4000,-210.000
1593.6000, -86.612
1593.8000,-210.000
1594.0000, -86.814
1594.2000, -88.667
1594.4000, -83.963
1594.6000, -88.322
1594.8000, -84.535
1595.0000,-210.000
1595.2000, -88.154
1595.4000,-210.000
1595.6000,-210.000
1595.8000, -88.049
1596.0000, -88.595
1596.2000,-210.000
1596.4000,-210.000
1596.6000,-210.000
1596.8000, -84.221
1597.0000, -88.010
1597.2000, -89.938
1597.4000,-103.407
1597.6000, -84.733
1597.8000,-210.000
1598.0000,-210.000
1598.2000,-210.000
1598.4000,-210.000
1598.6000, -88.140
1598.8000, -86.579
1599.0000,-210.000
1599.2000,-210.000
1599.4000, -83.060
1599.6000,-105.525
1599.8000,-100.880
1600.0000, -90.019
1600.2000, -89.034
1600.4000, -88.043
1600.6000,-210.000
1600.8000,-210.000
1601.0000,-210.000
1601.2000, -87.071
1601.4000, -90.695
1601.6000, -85.030
1601.8000, -91.746
1602.0000,-210.000
1602.2000, -88.203
1602.4000, -96.818
1602.6000,-210.000
1602.8000,-210.000
1603.0000, -84.607
1603.2000, -87.526
1603.4000, -93.469
1603.6000,-210.000
1603.8000, -88.923
1604.0000, -82.690
1604.2000,-210.000
1604.4000, -84.283
1604.6000, -87.632
1604.8000, -93.171
1605.0000,-210.000
1605.2000, -82.167
1605.4000, -92.778
1605.6000, -87.933
1605.8000, -85.102
1606.0000, -89.796
1606.2000,-210.000
1606.4000, -86.236
1606.6000,-210.000
1606.8000, -86.858
1607.0000,-210.000
1607.2000, -86.271
1607.4000, -84.238
1607.6000,-210.000
1607.8000, -87.031
1608.0000,-210.000
1608.2000, -87.731
1608.4000,-210.000
1608.6000,-210.000
1608.8000,-210.000
1609.0000, -89.131
1609.2000, -83.977
1609.4000, -89.481
1609.6000, -81.482
1609.8000, -84.071
1610.0000, -85.128
1610.2000, -89.460
1610.4000, -85.629
1610.6000,-210.000
1610.8000,-210.000
1611.0000, -88.414
1611.2000,-210.000
1611.4000,-210.000
1611.6000, -85.771
1611.8000, -85.283
1612.0000, -82.272
1612.2000,-210.000
1612.4000,-210.000
1612.6000,-210.000
1612.8000, -83.550
1613.0000, -83.398
1613.2000, -86.462
1613.4000,-210.000
1613.6000,-210.000
1613.8000,-210.000
1614.0000, -92.504
1614.2000,-210.000
1614.4000,-210.000
1614.6000, -86.620
1614.8000, -86.254
1615.0000, -93.872
1615.2000, -90.988
1615.4000,-210.000
1615.6000,-210.000
1615.8000, -96.079
1616.0000, -84.368
1616.2000, -87.268
1616.4000,-210.000
1616.6000,-210.000
1616.8000,-210.000
1617.0000,-210.000
1617.2000, -82.362
1617.4000, -88.441
1617.6000,-210.000
1617.8000, -93.366
1618.0000,-210.000
1618.2000, -83.401
1618.4000,-210.000
1618.6000, -89.547
1618.8000,-210.000
1619.0000, -87.627
1619.2000, -86.977
1619.4000, -89.778
1619.6000, -84.614
1619.8000, -88.303
1620.0000, -86.156
1620.2000, -90.164
1620.4000, -82.997
1620.6000,-210.000
1620.8000,-210.000
1621.0000, -84.993
1621.2000, -87.205
1621.4000, -87.064
1621.6000, -95.577
1621.8000,-210.000
1622.0000,-210.000
1622.2000,-210.000
1622.4000, -90.988
1622.6000, -85.369
1622.8000, -84.635
1623.0000,-210.000
1623.2000, -84.963
1623.4000, -96.971
1623.6000,-210.000
1623.8000,-210.000
1624.0000,-210.000
1624.2000,-210.000
1624.4000, -84.990
1624.6000,-210.000
1624.8000, -88.336
1625.0000,-210.000
1625.2000, -88.342
1625.4000,-210.000
1625.6000, -90.464
1625.8000, -85.161
1626.0000, -86.675
1626.2000,-210.000
1626.4000, -90.700
1626.6000,-210.000
1626.8000, -88.417
1627.0000, -85.288
1627.2000,-210.000
1627.4000, -87.190
1627.6000,-210.000
1627.8000,-210.000
1628.0000, -90.030
1628.2000, -85.290
1628.4000,-210.000
1628.6000,-210.000
1628.8000,-210.000
1629.0000, -90.798
1629.2000, -83.471
1629.4000, -95.928
1629.6000, -90.763
1629.8000,-210.000
1630.0000, -89.396
1630.2000,-210.000
1630.4000, -94.033
1630.6000, -86.264
1630.8000, -98.396
1631.0000, -81.204
1631.2000,-210.000
1631.4000, -91.961
1631.6000, -95.120
1631.8000,-210.000
1632.0000, -86.555
1632.2000, -91.295
1632.4000,-210.000
1632.6000, -83.145
1632.8000, -85.701
1633.0000, -86.768
1633.2000,-210.000
1633.4000,-210.000
1633.6000,-210.000
1633.8000, -93.901
1634.0000, -88.651
1634.2000,-210.000
1634.4000, -87.235
1634.6000,-210.000
1634.8000, -85.495
1635.0000,-210.000
1635.2000,-210.000
1635.4000,-210.000
1635.6000,-210.000
1635.8000, -82.147
1636.0000, -85.822
1636.2000,-210.000
1636.4000, -95.534
1636.6000, -92.508
1636.8000, -96.018
1637.0000,-210.000
1637.2000,-210.000
1637.4000,-210.000
1637.6000,-210.000
1637.8000, -84.197
1638.0000,-210.000
1638.2000, -87.258
1638.4000, -84.147
1638.6000,-210.000
1638.8000, -88.399
1639.0000, -88.071
1639.2000,-210.000
1639.4000,-210.000
1639.6000, -83.927
1639.8000,-210.000
1640.0000, -93.033
1640.2000,-210.000
1640.4000, -83.742
1640.6000,-210.000
1640.8000,-210.000
1641.0000, -85.584
1641.2000,-210.000
1641.4000, -88.259
1641.6000,-210.000
1641.8000, -85.151
1642.0000,-210.000
1642.2000, -87.432
1642.4000, -89.988
1642.6000,-210.000
1642.8000,-210.000
1643.0000,-210.000
1643.2000, -89.451
1643.4000, -87.011
1643.6000,-210.000
1643.8000,-105.543
1644.0000,-210.000
1644.2000, -87.537
1644.4000, -86.439
1644.6000,-210.000
1644.8000,-210.000
1645.0000,-210.000
1645.2000, -85.437
1645.4000, -91.968
1645.6000,-210.000
1645.8000, -82.992
1646.0000, -87.233
1646.2000, -83.947
1646.4000,-210.000
1646.6000, -91.564
1646.8000, -83.442
1647.0000,-210.000
1647.2000,-210.000
1647.4000, -83.020
1647.6000, -85.918
1647.8000,-210.000
1648.0000,-210.000
1648.2000,-210.000
1648.4000, -88.121
1648.6000, -86.562
1648.8000,-210.000
1649.0000, -94.778
1649.2000,-210.000
1649.4000, -88.193
1649.6000,-210.000
1649.8000, -86.816
1650.0000, -89.361
1650.2000,-210.000
1650.4000, -84.157
1650.6000, -84.553
1650.8000, -81.247
1651.0000, -85.379
1651.2000,-210.000
1651.4000, -86.100
1651.6000,-210.000
1651.8000, -86.692
1652.0000, -85.593
1652.2000,-210.000
1652.4000, -91.176
1652.6000,-210.000
1652.8000,-210.000
1653.0000, -83.333
1653.2000,-210.000
1653.4000,-210.000
1653.6000, -82.754
1653.8000, -82.811
1654.0000, -81.283
1654.2000, -96.930
1654.4000, -93.433
1654.6000, -93.059
1654.8000, -94.501
1655.0000, -85.854
1655.2000, -88.815
1655.4000,-210.000
1655.6000, -85.373
1655.8000, -82.558
1656.0000,-210.000
1656.2000, -87.243
1656.4000, -90.199
1656.6000, -85.893
1656.8000,-210.000
1657.0000,-210.000
1657.2000, -85.745
1657.4000, -84.522
1657.6000, -84.457
1657.8000,-210.000
1658.0000,-210.000
1658.2000, -87.238
1658.4000,-210.000
1658.6000,-210.000
1658.8000,-210.000
1659.0000,-210.000
1659.2000, -90.910
1659.4000,-210.000
1659.6000,-210.000
1659.8000,-210.000
1660.0000,-210.000
1660.2000,-210.000
1660.4000, -82.699
1660.6000, -90.309
1660.8000,-210.000
1661.0000,-210.000
1661.2000,-210.000
1661.4000, -93.529
1661.6000, -85.678
1661.8000,-210.000
1662.0000,-210.000
1662.2000,-210.000
1662.4000,-210.000
1662.6000,-210.000
1662.8000,-210.000
1663.0000, -82.661
1663.2000, -84.059
1663.4000,-210.000
1663.6000, -81.589
1663.8000,-210.000
1664.0000,-210.000
1664.2000, -88.856
1664.4000,-210.000
1664.6000,-210.000
1664.8000, -82.635
1665.0000, -83.063
1665.2000, -81.988
1665.4000, -91.254
1665.6000, -78.155
1665.8000, -87.949
1666.0000,-210.000
1666.2000,-210.000
1666.4000,-210.000
1666.6000,-210.000
1666.8000,-210.000
1667.0000, -92.067
1667.2000,-101.342
1667.4000, -93.638
1667.6000,-210.000
1667.8000, -85.334
1668.0000, -80.779
1668.2000, -82.570
1668.4000, -93.631
1668.6000,-210.000
1668.8000,-210.000
1669.0000, -80.824
1669.2000, -86.550
1669.4000, -87.359
1669.6000, -82.877
1669.8000,-210.000
1670.0000,-210.000
1670.2000,-210.000
1670.4000,-210.000
1670.6000, -80.789
1670.8000, -83.459
1671.0000, -81.826
1671.2000,-210.000
1671.4000, -84.516
1671.6000,-210.000
1671.8000, -85.941
1672.0000,-210.000
1672.2000, -87.239
1672.4000,-210.000
1672.6000, -78.706
1672.8000, -83.699
1673.0000, -94.152
1673.2000, -84.226
1673.4000,-210.000
1673.6000,-210.000
1673.8000, -95.658
1674.0000, -85.505
1674.2000,-210.000
1674.4000,-210.000
1674.6000, -79.284
1674.8000, -88.694
1675.0000, -78.853
1675.2000, -86.680
1675.4000,-210.000
1675.6000,-210.000
1675.8000, -85.890
1676.0000, -82.872
1676.2000, -92.235
1676.4000, -82.200
1676.6000, -83.864
1676.8000,-210.000
1677.0000, -79.549
1677.2000, -83.360
1677.4000, -81.560
1677.6000, -95.736
1677.8000,-210.000
1678.0000,-210.000
1678.2000,-210.000
1678.4000,-210.000
1678.6000, -80.207
1678.8000, -84.233
1679.0000,-210.000
1679.2000,-210.000
1679.4000,-210.000
1679.6000,-210.000
1679.8000,-210.000
1680.0000,-210.000
1680.2000, -79.349
1680.4000,-210.000
1680.6000,-210.000
1680.8000,-210.000
1681.0000,-210.000
1681.2000, -83.784
1681.4000,-210.000
1681.6000,-210.000
1681.8000,-210.000
1682.0000,-210.000
1682.2000, -78.860
1682.4000,-210.000
1682.6000, -84.118
1682.8000, -79.528
1683.0000, -83.251
1683.2000,-210.000
1683.4000, -79.504
1683.6000,-210.000
1683.8000, -76.955
1684.0000,-210.000
1684.2000,-210.000
1684.4000, -77.090
1684.6000,-210.000
1684.8000, -77.209
1685.0000,-210.000
1685.2000,-210.000
1685.4000,-210.000
1685.6000, -78.758
1685.8000, -75.338
1686.0000, -78.715
1686.2000, -81.056
1686.4000,-210.000
1686.6000, -82.615
1686.8000,-210.000
1687.0000, -87.003
1687.2000,-210.000
1687.4000,-210.000
1687.6000, -91.977
1687.8000, -76.153
1688.0000, -74.634
1688.2000,-210.000
1688.4000,-210.000
1688.6000,-210.000
1688.8000,-210.000
1689.0000,-210.000
1689.2000, -78.506
1689.4000,-210.000
1689.6000,-210.000
1689.8000,-210.000
1690.0000,-210.000
1690.2000,-210.000
1690.4000,-210.000
1690.6000,-210.000
1690.8000,-210.000
1691.0000,-210.000
1691.2000, -79.356
1691.4000,-210.000
1691.6000,-210.000
1691.8000,-210.000
1692.0000, -79.946
1692.2000, -73.979
1692.4000,-210.000
1692.6000,-210.000
1692.8000, -74.529
1693.0000,-210.000
1693.2000,-210.000
1693.4000,-210.000
1693.6000, -79.733
1693.8000,-210.000
1694.0000, -82.150
1694.2000, -76.899
1694.4000,-210.000
1694.6000,-210.000
1694.8000, -79.326
1695.0000,-210.000
1695.2000,-210.000
1695.4000,-210.000
1695.6000, -83.763
1695.8000,-210.000
1696.0000, -75.512
1696.2000, -78.667
1696.4000,-210.000
1696.6000, -77.211
1696.8000,-210.000
1697.0000, -79.743
1697.2000, -76.006
1697.4000, -75.849
1697.6000, -74.185
1697.8000,-210.000
1698.0000, -78.289
1698.2000,-210.000
1698.4000,-210.000
1698.6000,-210.000
1698.8000, -75.843
1699.0000,-210.000
1699.2000,-210.000
1699.4000, -90.042
1699.6000, -79.869
1699.8000, -78.851
1700.0000,-210.000
