74CSV  	
// AQ6374 OPTICAL SPECTRUM ANALYZER //                  
35
"CTRWL",1125.000000
"SPAN",1150.000000
"START WL", 550.000000
"STOP WL",1700.000000
"WLFREQ", 0
"REFL",-56.6
"LSCL", 5.0
"RESLN",1.000
"AVG",   1
"SMPLAUTO",      1
"SMPL",       5751
"SMPLINTVL",0.2000
"HIGH1"
"MEAS"
"LSUNT",0
"NMSKH","OFF"
"RESCOR",0
"SMOOTH",0
"MEASWL",1
"SWPSPD",0
"MODELNAME","AQ6374"
"CHGPT",        102
"RESCAL0_0",       9996
"RESCAL0_1",       -866
"RESCAL0_2",    1341521
"RESCAL1_0",      10053
"RESCAL1_1",          0
"RESCAL1_2",          0
"CORESIZE", 0






"[TRACE DATA]"
 550.0000, -71.778
 550.2000, -72.956
 550.4000, -66.922
 550.6000,-210.000
 550.8000, -74.528
 551.0000, -69.566
 551.2000, -78.471
 551.4000, -74.152
 551.6000,-210.000
 551.8000,-210.000
 552.0000,-210.000
 552.2000,-210.000
 552.4000, -71.605
 552.6000,-210.000
 552.8000, -72.145
 553.0000, -70.116
 553.2000, -82.703
 553.4000,-210.000
 553.6000, -67.546
 553.8000,-210.000
 554.0000, -77.577
 554.2000, -69.307
 554.4000,-210.000
 554.6000, -67.513
 554.8000, -78.287
 555.0000,-210.000
 555.2000,-210.000
 555.4000, -69.210
 555.6000, -73.542
 555.8000, -73.850
 556.0000,-210.000
 556.2000, -71.848
 556.4000, -75.392
 556.6000, -70.789
 556.8000, -69.825
 557.0000, -66.141
 557.2000, -78.136
 557.4000, -77.042
 557.6000,-210.000
 557.8000, -68.722
 558.0000, -71.266
 558.2000, -75.107
 558.4000, -75.579
 558.6000, -76.990
 558.8000, -71.609
 559.0000, -71.164
 559.2000, -71.813
 559.4000, -67.799
 559.6000, -70.631
 559.8000, -68.106
 560.0000, -72.014
 560.2000, -68.841
 560.4000, -67.535
 560.6000,-210.000
 560.8000, -76.874
 561.0000,-210.000
 561.2000, -70.383
 561.4000,-210.000
 561.6000, -70.190
 561.8000, -68.761
 562.0000, -74.788
 562.2000,-210.000
 562.4000, -66.933
 562.6000, -72.804
 562.8000, -82.354
 563.0000, -70.700
 563.2000, -66.962
 563.4000, -67.478
 563.6000,-210.000
 563.8000, -69.003
 564.0000, -74.076
 564.2000, -78.176
 564.4000, -72.053
 564.6000, -79.084
 564.8000, -71.184
 565.0000, -72.317
 565.2000, -67.588
 565.4000, -69.926
 565.6000,-210.000
 565.8000, -73.053
 566.0000,-210.000
 566.2000, -66.673
 566.4000, -66.936
 566.6000, -69.855
 566.8000,-210.000
 567.0000, -74.207
 567.2000, -73.131
 567.4000,-210.000
 567.6000,-210.000
 567.8000, -73.143
 568.0000, -72.049
 568.2000, -77.015
 568.4000, -68.960
 568.6000, -67.016
 568.8000,-210.000
 569.0000,-210.000
 569.2000, -70.858
 569.4000, -73.862
 569.6000, -70.892
 569.8000, -74.476
 570.0000,-210.000
 570.2000, -67.274
 570.4000, -73.168
 570.6000, -66.415
 570.8000, -68.267
 571.0000, -69.656
 571.2000, -71.662
 571.4000, -66.604
 571.6000, -71.073
 571.8000, -69.042
 572.0000, -66.112
 572.2000, -69.015
 572.4000, -70.712
 572.6000, -66.701
 572.8000, -67.812
 573.0000, -69.497
 573.2000, -68.380
 573.4000, -67.283
 573.6000, -68.813
 573.8000, -68.134
 574.0000, -66.480
 574.2000, -67.400
 574.4000, -65.871
 574.6000, -67.292
 574.8000, -66.320
 575.0000, -68.201
 575.2000, -66.110
 575.4000, -65.571
 575.6000, -66.637
 575.8000, -66.362
 576.0000, -68.872
 576.2000, -67.845
 576.4000, -67.837
 576.6000, -67.360
 576.8000, -66.646
 577.0000, -68.429
 577.2000, -67.384
 577.4000, -65.624
 577.6000, -66.725
 577.8000, -66.593
 578.0000, -66.993
 578.2000, -68.143
 578.4000, -66.614
 578.6000, -66.670
 578.8000, -65.613
 579.0000, -66.099
 579.2000, -65.827
 579.4000, -66.107
 579.6000, -65.676
 579.8000, -66.182
 580.0000, -66.588
 580.2000, -65.573
 580.4000, -65.470
 580.6000, -66.570
 580.8000, -65.812
 581.0000, -65.091
 581.2000, -65.272
 581.4000, -65.756
 581.6000, -65.796
 581.8000, -66.683
 582.0000, -65.298
 582.2000, -65.614
 582.4000, -65.629
 582.6000, -65.351
 582.8000, -66.382
 583.0000, -64.632
 583.2000, -65.133
 583.4000, -66.199
 583.6000, -65.140
 583.8000, -66.184
 584.0000, -64.253
 584.2000, -65.996
 584.4000, -66.584
 584.6000, -64.411
 584.8000, -64.942
 585.0000, -65.144
 585.2000, -64.918
 585.4000, -65.077
 585.6000, -64.468
 585.8000, -65.224
 586.0000, -64.604
 586.2000, -64.040
 586.4000, -64.206
 586.6000, -64.175
 586.8000, -64.578
 587.0000, -64.311
 587.2000, -64.359
 587.4000, -63.974
 587.6000, -64.350
 587.8000, -64.359
 588.0000, -64.518
 588.2000, -64.007
 588.4000, -63.977
 588.6000, -64.704
 588.8000, -63.726
 589.0000, -63.667
 589.2000, -63.156
 589.4000, -63.356
 589.6000, -63.599
 589.8000, -64.003
 590.0000, -63.944
 590.2000, -63.230
 590.4000, -63.604
 590.6000, -63.206
 590.8000, -63.308
 591.0000, -62.866
 591.2000, -62.322
 591.4000, -63.018
 591.6000, -62.549
 591.8000, -63.320
 592.0000, -63.635
 592.2000, -63.715
 592.4000, -63.112
 592.6000, -62.916
 592.8000, -63.153
 593.0000, -62.691
 593.2000, -62.324
 593.4000, -62.641
 593.6000, -62.596
 593.8000, -62.156
 594.0000, -62.201
 594.2000, -62.119
 594.4000, -62.112
 594.6000, -62.360
 594.8000, -61.888
 595.0000, -62.158
 595.2000, -62.003
 595.4000, -61.896
 595.6000, -61.680
 595.8000, -61.612
 596.0000, -61.986
 596.2000, -61.939
 596.4000, -61.764
 596.6000, -61.286
 596.8000, -61.629
 597.0000, -61.529
 597.2000, -61.624
 597.4000, -61.098
 597.6000, -61.364
 597.8000, -61.345
 598.0000, -61.234
 598.2000, -61.201
 598.4000, -61.170
 598.6000, -61.383
 598.8000, -61.275
 599.0000, -60.965
 599.2000, -60.787
 599.4000, -60.674
 599.6000, -60.713
 599.8000, -61.046
 600.0000, -60.618
 600.2000, -60.670
 600.4000, -60.459
 600.6000, -60.477
 600.8000, -60.311
 601.0000, -60.243
 601.2000, -60.363
 601.4000, -60.246
 601.6000, -60.552
 601.8000, -60.774
 602.0000, -60.756
 602.2000, -60.320
 602.4000, -60.580
 602.6000, -60.305
 602.8000, -60.153
 603.0000, -60.030
 603.2000, -60.120
 603.4000, -59.878
 603.6000, -59.966
 603.8000, -59.746
 604.0000, -59.953
 604.2000, -59.625
 604.4000, -59.788
 604.6000, -59.363
 604.8000, -59.714
 605.0000, -59.404
 605.2000, -59.406
 605.4000, -59.334
 605.6000, -59.092
 605.8000, -59.401
 606.0000, -59.133
 606.2000, -59.219
 606.4000, -59.144
 606.6000, -59.291
 606.8000, -58.925
 607.0000, -58.866
 607.2000, -58.959
 607.4000, -58.851
 607.6000, -58.922
 607.8000, -58.698
 608.0000, -58.590
 608.2000, -58.762
 608.4000, -58.757
 608.6000, -58.455
 608.8000, -58.482
 609.0000, -58.525
 609.2000, -58.718
 609.4000, -58.225
 609.6000, -58.451
 609.8000, -58.319
 610.0000, -58.517
 610.2000, -58.273
 610.4000, -58.201
 610.6000, -58.306
 610.8000, -58.102
 611.0000, -58.134
 611.2000, -57.811
 611.4000, -57.919
 611.6000, -57.718
 611.8000, -57.775
 612.0000, -57.696
 612.2000, -57.627
 612.4000, -57.563
 612.6000, -57.546
 612.8000, -57.478
 613.0000, -57.508
 613.2000, -57.502
 613.4000, -57.210
 613.6000, -57.310
 613.8000, -57.182
 614.0000, -57.287
 614.2000, -57.169
 614.4000, -57.069
 614.6000, -56.978
 614.8000, -57.084
 615.0000, -56.883
 615.2000, -56.893
 615.4000, -56.841
 615.6000, -56.772
 615.8000, -56.930
 616.0000, -56.730
 616.2000, -56.631
 616.4000, -56.611
 616.6000, -56.498
 616.8000, -56.428
 617.0000, -56.502
 617.2000, -56.385
 617.4000, -56.163
 617.6000, -56.176
 617.8000, -56.228
 618.0000, -56.363
 618.2000, -56.013
 618.4000, -55.860
 618.6000, -55.987
 618.8000, -56.164
 619.0000, -55.794
 619.2000, -55.692
 619.4000, -55.860
 619.6000, -55.831
 619.8000, -55.578
 620.0000, -55.528
 620.2000, -55.658
 620.4000, -55.477
 620.6000, -55.445
 620.8000, -55.381
 621.0000, -55.481
 621.2000, -55.456
 621.4000, -55.363
 621.6000, -55.207
 621.8000, -55.159
 622.0000, -55.154
 622.2000, -55.138
 622.4000, -54.909
 622.6000, -54.985
 622.8000, -55.049
 623.0000, -54.821
 623.2000, -54.713
 623.4000, -54.679
 623.6000, -54.840
 623.8000, -54.528
 624.0000, -54.640
 624.2000, -54.641
 624.4000, -54.445
 624.6000, -54.494
 624.8000, -54.418
 625.0000, -54.424
 625.2000, -54.215
 625.4000, -54.140
 625.6000, -54.276
 625.8000, -54.166
 626.0000, -54.215
 626.2000, -53.992
 626.4000, -54.025
 626.6000, -54.087
 626.8000, -54.037
 627.0000, -54.004
 627.2000, -54.031
 627.4000, -53.875
 627.6000, -53.854
 627.8000, -53.760
 628.0000, -53.721
 628.2000, -53.701
 628.4000, -53.575
 628.6000, -53.685
 628.8000, -53.612
 629.0000, -53.384
 629.2000, -53.622
 629.4000, -53.366
 629.6000, -53.374
 629.8000, -53.252
 630.0000, -53.246
 630.2000, -53.157
 630.4000, -53.017
 630.6000, -53.152
 630.8000, -53.092
 631.0000, -52.954
 631.2000, -52.902
 631.4000, -52.970
 631.6000, -52.835
 631.8000, -52.802
 632.0000, -52.761
 632.2000, -52.826
 632.4000, -52.704
 632.6000, -52.725
 632.8000, -52.699
 633.0000, -52.662
 633.2000, -52.616
 633.4000, -52.623
 633.6000, -52.648
 633.8000, -52.466
 634.0000, -52.466
 634.2000, -52.366
 634.4000, -52.413
 634.6000, -52.331
 634.8000, -52.258
 635.0000, -52.320
 635.2000, -52.081
 635.4000, -52.209
 635.6000, -52.197
 635.8000, -52.001
 636.0000, -51.985
 636.2000, -52.017
 636.4000, -52.052
 636.6000, -51.954
 636.8000, -51.816
 637.0000, -51.787
 637.2000, -51.783
 637.4000, -51.806
 637.6000, -51.775
 637.8000, -51.609
 638.0000, -51.615
 638.2000, -51.655
 638.4000, -51.569
 638.6000, -51.766
 638.8000, -51.600
 639.0000, -51.503
 639.2000, -51.536
 639.4000, -51.335
 639.6000, -51.388
 639.8000, -51.454
 640.0000, -51.437
 640.2000, -51.308
 640.4000, -51.315
 640.6000, -51.342
 640.8000, -51.173
 641.0000, -51.079
 641.2000, -51.250
 641.4000, -51.166
 641.6000, -51.152
 641.8000, -51.152
 642.0000, -51.022
 642.2000, -51.027
 642.4000, -50.964
 642.6000, -50.951
 642.8000, -50.878
 643.0000, -50.930
 643.2000, -50.876
 643.4000, -50.882
 643.6000, -50.753
 643.8000, -50.720
 644.0000, -50.733
 644.2000, -50.797
 644.4000, -50.684
 644.6000, -50.595
 644.8000, -50.599
 645.0000, -50.639
 645.2000, -50.625
 645.4000, -50.630
 645.6000, -50.488
 645.8000, -50.479
 646.0000, -50.484
 646.2000, -50.458
 646.4000, -50.533
 646.6000, -50.396
 646.8000, -50.412
 647.0000, -50.279
 647.2000, -50.429
 647.4000, -50.369
 647.6000, -50.336
 647.8000, -50.288
 648.0000, -50.323
 648.2000, -50.296
 648.4000, -50.261
 648.6000, -50.159
 648.8000, -50.127
 649.0000, -50.150
 649.2000, -50.260
 649.4000, -50.170
 649.6000, -50.130
 649.8000, -50.045
 650.0000, -49.945
 650.2000, -50.055
 650.4000, -50.103
 650.6000, -50.089
 650.8000, -49.998
 651.0000, -49.919
 651.2000, -49.932
 651.4000, -49.910
 651.6000, -49.885
 651.8000, -49.844
 652.0000, -49.830
 652.2000, -49.945
 652.4000, -49.739
 652.6000, -49.767
 652.8000, -49.851
 653.0000, -49.683
 653.2000, -49.629
 653.4000, -49.634
 653.6000, -49.630
 653.8000, -49.561
 654.0000, -49.704
 654.2000, -49.595
 654.4000, -49.602
 654.6000, -49.579
 654.8000, -49.597
 655.0000, -49.506
 655.2000, -49.396
 655.4000, -49.376
 655.6000, -49.498
 655.8000, -49.498
 656.0000, -49.491
 656.2000, -49.448
 656.4000, -49.492
 656.6000, -49.395
 656.8000, -49.449
 657.0000, -49.402
 657.2000, -49.481
 657.4000, -49.392
 657.6000, -49.442
 657.8000, -49.316
 658.0000, -49.343
 658.2000, -49.243
 658.4000, -49.339
 658.6000, -49.276
 658.8000, -49.301
 659.0000, -49.208
 659.2000, -49.187
 659.4000, -49.224
 659.6000, -49.157
 659.8000, -49.326
 660.0000, -49.269
 660.2000, -49.125
 660.4000, -49.236
 660.6000, -49.237
 660.8000, -49.169
 661.0000, -48.997
 661.2000, -49.285
 661.4000, -49.094
 661.6000, -49.113
 661.8000, -49.024
 662.0000, -49.176
 662.2000, -49.033
 662.4000, -48.962
 662.6000, -49.067
 662.8000, -49.047
 663.0000, -48.897
 663.2000, -48.963
 663.4000, -48.981
 663.6000, -48.858
 663.8000, -49.101
 664.0000, -48.998
 664.2000, -49.037
 664.4000, -48.929
 664.6000, -48.943
 664.8000, -48.940
 665.0000, -48.945
 665.2000, -48.876
 665.4000, -48.927
 665.6000, -48.859
 665.8000, -48.858
 666.0000, -48.788
 666.2000, -48.884
 666.4000, -48.809
 666.6000, -48.808
 666.8000, -48.971
 667.0000, -48.860
 667.2000, -48.810
 667.4000, -48.890
 667.6000, -48.727
 667.8000, -48.780
 668.0000, -48.805
 668.2000, -48.685
 668.4000, -48.678
 668.6000, -48.777
 668.8000, -48.644
 669.0000, -48.776
 669.2000, -48.826
 669.4000, -48.668
 669.6000, -48.707
 669.8000, -48.606
 670.0000, -48.612
 670.2000, -48.524
 670.4000, -48.599
 670.6000, -48.613
 670.8000, -48.606
 671.0000, -48.617
 671.2000, -48.494
 671.4000, -48.632
 671.6000, -48.608
 671.8000, -48.583
 672.0000, -48.574
 672.2000, -48.512
 672.4000, -48.550
 672.6000, -48.531
 672.8000, -48.542
 673.0000, -48.645
 673.2000, -48.603
 673.4000, -48.542
 673.6000, -48.476
 673.8000, -48.443
 674.0000, -48.437
 674.2000, -48.629
 674.4000, -48.506
 674.6000, -48.578
 674.8000, -48.595
 675.0000, -48.594
 675.2000, -48.544
 675.4000, -48.339
 675.6000, -48.469
 675.8000, -48.393
 676.0000, -48.401
 676.2000, -48.421
 676.4000, -48.582
 676.6000, -48.489
 676.8000, -48.464
 677.0000, -48.396
 677.2000, -48.490
 677.4000, -48.467
 677.6000, -48.354
 677.8000, -48.382
 678.0000, -48.375
 678.2000, -48.470
 678.4000, -48.411
 678.6000, -48.363
 678.8000, -48.421
 679.0000, -48.474
 679.2000, -48.311
 679.4000, -48.435
 679.6000, -48.317
 679.8000, -48.399
 680.0000, -48.469
 680.2000, -48.448
 680.4000, -48.418
 680.6000, -48.410
 680.8000, -48.404
 681.0000, -48.333
 681.2000, -48.505
 681.4000, -48.335
 681.6000, -48.304
 681.8000, -48.363
 682.0000, -48.328
 682.2000, -48.335
 682.4000, -48.356
 682.6000, -48.373
 682.8000, -48.428
 683.0000, -48.399
 683.2000, -48.320
 683.4000, -48.298
 683.6000, -48.319
 683.8000, -48.392
 684.0000, -48.258
 684.2000, -48.367
 684.4000, -48.380
 684.6000, -48.282
 684.8000, -48.316
 685.0000, -48.343
 685.2000, -48.451
 685.4000, -48.308
 685.6000, -48.346
 685.8000, -48.323
 686.0000, -48.359
 686.2000, -48.281
 686.4000, -48.370
 686.6000, -48.268
 686.8000, -48.331
 687.0000, -48.269
 687.2000, -48.349
 687.4000, -48.312
 687.6000, -48.352
 687.8000, -48.278
 688.0000, -48.282
 688.2000, -48.284
 688.4000, -48.296
 688.6000, -48.337
 688.8000, -48.393
 689.0000, -48.302
 689.2000, -48.346
 689.4000, -48.358
 689.6000, -48.298
 689.8000, -48.282
 690.0000, -48.429
 690.2000, -48.243
 690.4000, -48.339
 690.6000, -48.352
 690.8000, -48.363
 691.0000, -48.388
 691.2000, -48.396
 691.4000, -48.346
 691.6000, -48.240
 691.8000, -48.283
 692.0000, -48.212
 692.2000, -48.385
 692.4000, -48.242
 692.6000, -48.337
 692.8000, -48.278
 693.0000, -48.317
 693.2000, -48.362
 693.4000, -48.352
 693.6000, -48.378
 693.8000, -48.284
 694.0000, -48.355
 694.2000, -48.268
 694.4000, -48.319
 694.6000, -48.245
 694.8000, -48.398
 695.0000, -48.383
 695.2000, -48.333
 695.4000, -48.199
 695.6000, -48.393
 695.8000, -48.288
 696.0000, -48.251
 696.2000, -48.328
 696.4000, -48.433
 696.6000, -48.354
 696.8000, -48.322
 697.0000, -48.361
 697.2000, -48.252
 697.4000, -48.331
 697.6000, -48.250
 697.8000, -48.433
 698.0000, -48.368
 698.2000, -48.423
 698.4000, -48.535
 698.6000, -48.426
 698.8000, -48.411
 699.0000, -48.384
 699.2000, -48.470
 699.4000, -48.373
 699.6000, -48.553
 699.8000, -48.520
 700.0000, -48.570
 700.2000, -48.389
 700.4000, -48.398
 700.6000, -48.475
 700.8000, -48.536
 701.0000, -48.474
 701.2000, -48.427
 701.4000, -48.504
 701.6000, -48.584
 701.8000, -48.553
 702.0000, -48.407
 702.2000, -48.544
 702.4000, -48.503
 702.6000, -48.482
 702.8000, -48.563
 703.0000, -48.549
 703.2000, -48.547
 703.4000, -48.523
 703.6000, -48.550
 703.8000, -48.573
 704.0000, -48.590
 704.2000, -48.430
 704.4000, -48.682
 704.6000, -48.524
 704.8000, -48.734
 705.0000, -48.579
 705.2000, -48.833
 705.4000, -48.705
 705.6000, -48.586
 705.8000, -48.672
 706.0000, -48.653
 706.2000, -48.697
 706.4000, -48.675
 706.6000, -48.654
 706.8000, -48.596
 707.0000, -48.717
 707.2000, -48.758
 707.4000, -48.704
 707.6000, -48.713
 707.8000, -48.709
 708.0000, -48.736
 708.2000, -48.818
 708.4000, -48.847
 708.6000, -48.782
 708.8000, -48.806
 709.0000, -48.723
 709.2000, -48.922
 709.4000, -48.918
 709.6000, -48.900
 709.8000, -48.911
 710.0000, -48.910
 710.2000, -48.949
 710.4000, -48.782
 710.6000, -48.946
 710.8000, -48.780
 711.0000, -48.819
 711.2000, -48.929
 711.4000, -49.045
 711.6000, -48.929
 711.8000, -49.058
 712.0000, -49.030
 712.2000, -48.957
 712.4000, -49.056
 712.6000, -48.940
 712.8000, -49.028
 713.0000, -49.040
 713.2000, -49.043
 713.4000, -48.962
 713.6000, -49.088
 713.8000, -48.989
 714.0000, -49.031
 714.2000, -49.100
 714.4000, -49.045
 714.6000, -49.192
 714.8000, -49.018
 715.0000, -49.154
 715.2000, -48.947
 715.4000, -49.116
 715.6000, -49.033
 715.8000, -49.199
 716.0000, -49.219
 716.2000, -49.050
 716.4000, -49.222
 716.6000, -49.262
 716.8000, -49.167
 717.0000, -49.216
 717.2000, -49.344
 717.4000, -49.258
 717.6000, -49.274
 717.8000, -49.196
 718.0000, -49.295
 718.2000, -49.200
 718.4000, -49.331
 718.6000, -49.406
 718.8000, -49.396
 719.0000, -49.372
 719.2000, -49.453
 719.4000, -49.352
 719.6000, -49.367
 719.8000, -49.463
 720.0000, -49.409
 720.2000, -49.404
 720.4000, -49.400
 720.6000, -49.420
 720.8000, -49.509
 721.0000, -49.454
 721.2000, -49.593
 721.4000, -49.470
 721.6000, -49.484
 721.8000, -49.441
 722.0000, -49.636
 722.2000, -49.430
 722.4000, -49.562
 722.6000, -49.583
 722.8000, -49.541
 723.0000, -49.614
 723.2000, -49.593
 723.4000, -49.665
 723.6000, -49.688
 723.8000, -49.594
 724.0000, -49.703
 724.2000, -49.624
 724.4000, -49.625
 724.6000, -49.852
 724.8000, -49.685
 725.0000, -49.663
 725.2000, -49.715
 725.4000, -49.720
 725.6000, -49.711
 725.8000, -49.721
 726.0000, -49.775
 726.2000, -49.700
 726.4000, -49.853
 726.6000, -49.666
 726.8000, -49.926
 727.0000, -49.737
 727.2000, -49.894
 727.4000, -49.911
 727.6000, -49.771
 727.8000, -49.929
 728.0000, -49.877
 728.2000, -49.894
 728.4000, -49.926
 728.6000, -50.008
 728.8000, -49.889
 729.0000, -49.956
 729.2000, -49.884
 729.4000, -50.018
 729.6000, -49.872
 729.8000, -50.005
 730.0000, -50.022
 730.2000, -49.939
 730.4000, -49.849
 730.6000, -49.974
 730.8000, -50.013
 731.0000, -49.984
 731.2000, -50.097
 731.4000, -49.983
 731.6000, -50.111
 731.8000, -50.063
 732.0000, -49.992
 732.2000, -50.015
 732.4000, -50.056
 732.6000, -50.002
 732.8000, -49.977
 733.0000, -50.102
 733.2000, -50.089
 733.4000, -50.301
 733.6000, -50.073
 733.8000, -50.179
 734.0000, -50.185
 734.2000, -50.071
 734.4000, -50.162
 734.6000, -50.134
 734.8000, -50.278
 735.0000, -50.121
 735.2000, -50.286
 735.4000, -50.212
 735.6000, -50.467
 735.8000, -50.223
 736.0000, -50.272
 736.2000, -50.316
 736.4000, -50.348
 736.6000, -50.320
 736.8000, -50.151
 737.0000, -50.289
 737.2000, -50.384
 737.4000, -50.436
 737.6000, -50.285
 737.8000, -50.503
 738.0000, -50.421
 738.2000, -50.416
 738.4000, -50.397
 738.6000, -50.443
 738.8000, -50.367
 739.0000, -50.447
 739.2000, -50.418
 739.4000, -50.443
 739.6000, -50.487
 739.8000, -50.554
 740.0000, -50.528
 740.2000, -50.495
 740.4000, -50.646
 740.6000, -50.488
 740.8000, -50.498
 741.0000, -50.726
 741.2000, -50.723
 741.4000, -50.501
 741.6000, -50.569
 741.8000, -50.613
 742.0000, -50.667
 742.2000, -50.581
 742.4000, -50.673
 742.6000, -50.627
 742.8000, -50.700
 743.0000, -50.715
 743.2000, -50.644
 743.4000, -50.640
 743.6000, -50.752
 743.8000, -50.710
 744.0000, -50.660
 744.2000, -50.686
 744.4000, -50.700
 744.6000, -50.625
 744.8000, -50.776
 745.0000, -50.670
 745.2000, -50.813
 745.4000, -50.796
 745.6000, -50.812
 745.8000, -50.937
 746.0000, -50.762
 746.2000, -50.881
 746.4000, -50.846
 746.6000, -50.880
 746.8000, -50.830
 747.0000, -51.036
 747.2000, -50.906
 747.4000, -50.822
 747.6000, -50.953
 747.8000, -50.938
 748.0000, -50.785
 748.2000, -50.876
 748.4000, -50.959
 748.6000, -50.893
 748.8000, -50.878
 749.0000, -50.992
 749.2000, -50.978
 749.4000, -50.948
 749.6000, -50.924
 749.8000, -51.075
 750.0000, -51.045
 750.2000, -51.109
 750.4000, -51.063
 750.6000, -51.078
 750.8000, -51.018
 751.0000, -51.065
 751.2000, -51.064
 751.4000, -51.070
 751.6000, -51.168
 751.8000, -51.059
 752.0000, -51.031
 752.2000, -51.101
 752.4000, -51.179
 752.6000, -51.063
 752.8000, -51.081
 753.0000, -51.100
 753.2000, -51.021
 753.4000, -51.191
 753.6000, -51.133
 753.8000, -51.220
 754.0000, -51.259
 754.2000, -51.203
 754.4000, -51.245
 754.6000, -51.287
 754.8000, -51.242
 755.0000, -51.248
 755.2000, -51.327
 755.4000, -51.221
 755.6000, -51.263
 755.8000, -51.300
 756.0000, -51.348
 756.2000, -51.297
 756.4000, -51.392
 756.6000, -51.311
 756.8000, -51.370
 757.0000, -51.353
 757.2000, -51.435
 757.4000, -51.349
 757.6000, -51.421
 757.8000, -51.377
 758.0000, -51.448
 758.2000, -51.524
 758.4000, -51.309
 758.6000, -51.494
 758.8000, -51.548
 759.0000, -51.578
 759.2000, -51.440
 759.4000, -51.459
 759.6000, -51.443
 759.8000, -51.580
 760.0000, -51.572
 760.2000, -51.490
 760.4000, -51.540
 760.6000, -51.608
 760.8000, -51.587
 761.0000, -51.575
 761.2000, -51.631
 761.4000, -51.641
 761.6000, -51.634
 761.8000, -51.588
 762.0000, -51.600
 762.2000, -51.711
 762.4000, -51.659
 762.6000, -51.626
 762.8000, -51.682
 763.0000, -51.793
 763.2000, -51.542
 763.4000, -51.685
 763.6000, -51.744
 763.8000, -51.790
 764.0000, -51.688
 764.2000, -51.753
 764.4000, -51.798
 764.6000, -51.892
 764.8000, -51.824
 765.0000, -51.797
 765.2000, -51.768
 765.4000, -51.940
 765.6000, -51.921
 765.8000, -51.734
 766.0000, -51.783
 766.2000, -51.764
 766.4000, -51.910
 766.6000, -51.925
 766.8000, -51.717
 767.0000, -51.788
 767.2000, -51.924
 767.4000, -51.850
 767.6000, -51.992
 767.8000, -52.004
 768.0000, -51.959
 768.2000, -51.844
 768.4000, -52.013
 768.6000, -51.951
 768.8000, -52.027
 769.0000, -51.920
 769.2000, -52.083
 769.4000, -51.949
 769.6000, -51.949
 769.8000, -52.038
 770.0000, -52.066
 770.2000, -52.030
 770.4000, -52.012
 770.6000, -52.165
 770.8000, -52.097
 771.0000, -52.218
 771.2000, -51.998
 771.4000, -52.130
 771.6000, -52.155
 771.8000, -52.213
 772.0000, -52.097
 772.2000, -52.215
 772.4000, -52.221
 772.6000, -52.185
 772.8000, -52.159
 773.0000, -52.148
 773.2000, -52.128
 773.4000, -52.245
 773.6000, -52.289
 773.8000, -52.229
 774.0000, -52.347
 774.2000, -52.395
 774.4000, -52.182
 774.6000, -52.302
 774.8000, -52.352
 775.0000, -52.295
 775.2000, -52.359
 775.4000, -52.318
 775.6000, -52.249
 775.8000, -52.382
 776.0000, -52.333
 776.2000, -52.349
 776.4000, -52.501
 776.6000, -52.405
 776.8000, -52.501
 777.0000, -52.436
 777.2000, -52.516
 777.4000, -52.567
 777.6000, -52.455
 777.8000, -52.461
 778.0000, -52.451
 778.2000, -52.551
 778.4000, -52.553
 778.6000, -52.528
 778.8000, -52.636
 779.0000, -52.504
 779.2000, -52.582
 779.4000, -52.496
 779.6000, -52.498
 779.8000, -52.591
 780.0000, -52.736
 780.2000, -52.572
 780.4000, -52.674
 780.6000, -52.621
 780.8000, -52.637
 781.0000, -52.607
 781.2000, -52.741
 781.4000, -52.603
 781.6000, -52.680
 781.8000, -52.601
 782.0000, -52.906
 782.2000, -52.886
 782.4000, -52.759
 782.6000, -52.811
 782.8000, -52.833
 783.0000, -52.912
 783.2000, -52.813
 783.4000, -52.903
 783.6000, -52.800
 783.8000, -52.962
 784.0000, -52.920
 784.2000, -53.002
 784.4000, -52.870
 784.6000, -52.859
 784.8000, -52.869
 785.0000, -52.860
 785.2000, -52.952
 785.4000, -52.985
 785.6000, -53.057
 785.8000, -52.954
 786.0000, -53.037
 786.2000, -53.075
 786.4000, -52.968
 786.6000, -53.144
 786.8000, -53.111
 787.0000, -53.196
 787.2000, -53.055
 787.4000, -53.158
 787.6000, -53.160
 787.8000, -53.021
 788.0000, -53.082
 788.2000, -53.136
 788.4000, -53.220
 788.6000, -53.164
 788.8000, -53.260
 789.0000, -53.175
 789.2000, -53.309
 789.4000, -53.289
 789.6000, -53.188
 789.8000, -53.223
 790.0000, -53.185
 790.2000, -53.315
 790.4000, -53.299
 790.6000, -53.454
 790.8000, -53.219
 791.0000, -53.409
 791.2000, -53.476
 791.4000, -53.398
 791.6000, -53.471
 791.8000, -53.349
 792.0000, -53.416
 792.2000, -53.437
 792.4000, -53.477
 792.6000, -53.523
 792.8000, -53.500
 793.0000, -53.499
 793.2000, -53.602
 793.4000, -53.519
 793.6000, -53.597
 793.8000, -53.542
 794.0000, -53.511
 794.2000, -53.650
 794.4000, -53.547
 794.6000, -53.737
 794.8000, -53.604
 795.0000, -53.680
 795.2000, -53.662
 795.4000, -53.677
 795.6000, -53.653
 795.8000, -53.698
 796.0000, -53.547
 796.2000, -53.776
 796.4000, -53.694
 796.6000, -53.706
 796.8000, -53.852
 797.0000, -53.703
 797.2000, -53.720
 797.4000, -53.868
 797.6000, -53.965
 797.8000, -53.932
 798.0000, -53.817
 798.2000, -53.752
 798.4000, -53.887
 798.6000, -53.917
 798.8000, -53.846
 799.0000, -53.947
 799.2000, -54.040
 799.4000, -53.927
 799.6000, -53.891
 799.8000, -53.982
 800.0000, -54.054
 800.2000, -53.969
 800.4000, -54.041
 800.6000, -54.049
 800.8000, -54.004
 801.0000, -54.152
 801.2000, -54.168
 801.4000, -54.033
 801.6000, -54.213
 801.8000, -54.122
 802.0000, -54.139
 802.2000, -54.039
 802.4000, -54.082
 802.6000, -54.115
 802.8000, -54.230
 803.0000, -54.337
 803.2000, -54.221
 803.4000, -54.350
 803.6000, -54.244
 803.8000, -54.280
 804.0000, -54.232
 804.2000, -54.201
 804.4000, -54.263
 804.6000, -54.364
 804.8000, -54.189
 805.0000, -54.325
 805.2000, -54.319
 805.4000, -54.305
 805.6000, -54.313
 805.8000, -54.478
 806.0000, -54.415
 806.2000, -54.352
 806.4000, -54.398
 806.6000, -54.316
 806.8000, -54.457
 807.0000, -54.520
 807.2000, -54.445
 807.4000, -54.452
 807.6000, -54.347
 807.8000, -54.414
 808.0000, -54.542
 808.2000, -54.425
 808.4000, -54.483
 808.6000, -54.444
 808.8000, -54.531
 809.0000, -54.485
 809.2000, -54.636
 809.4000, -54.615
 809.6000, -54.546
 809.8000, -54.640
 810.0000, -54.479
 810.2000, -54.695
 810.4000, -54.614
 810.6000, -54.794
 810.8000, -54.728
 811.0000, -54.757
 811.2000, -54.831
 811.4000, -54.737
 811.6000, -54.798
 811.8000, -54.776
 812.0000, -54.937
 812.2000, -54.758
 812.4000, -54.871
 812.6000, -54.846
 812.8000, -54.844
 813.0000, -55.033
 813.2000, -54.901
 813.4000, -55.030
 813.6000, -54.995
 813.8000, -54.851
 814.0000, -54.863
 814.2000, -54.995
 814.4000, -54.943
 814.6000, -54.992
 814.8000, -54.973
 815.0000, -55.070
 815.2000, -54.886
 815.4000, -54.962
 815.6000, -55.094
 815.8000, -55.000
 816.0000, -54.949
 816.2000, -55.149
 816.4000, -55.133
 816.6000, -55.076
 816.8000, -55.070
 817.0000, -55.059
 817.2000, -55.218
 817.4000, -55.189
 817.6000, -55.142
 817.8000, -55.144
 818.0000, -55.294
 818.2000, -55.295
 818.4000, -55.191
 818.6000, -55.225
 818.8000, -55.229
 819.0000, -55.188
 819.2000, -55.266
 819.4000, -55.262
 819.6000, -55.329
 819.8000, -55.200
 820.0000, -55.242
 820.2000, -55.204
 820.4000, -55.330
 820.6000, -55.223
 820.8000, -55.457
 821.0000, -55.363
 821.2000, -55.428
 821.4000, -55.414
 821.6000, -55.398
 821.8000, -55.459
 822.0000, -55.414
 822.2000, -55.579
 822.4000, -55.387
 822.6000, -55.479
 822.8000, -55.438
 823.0000, -55.592
 823.2000, -55.662
 823.4000, -55.574
 823.6000, -55.551
 823.8000, -55.425
 824.0000, -55.534
 824.2000, -55.537
 824.4000, -55.470
 824.6000, -55.603
 824.8000, -55.664
 825.0000, -55.762
 825.2000, -55.743
 825.4000, -55.670
 825.6000, -55.717
 825.8000, -55.698
 826.0000, -55.733
 826.2000, -55.641
 826.4000, -55.786
 826.6000, -55.860
 826.8000, -55.738
 827.0000, -55.633
 827.2000, -55.778
 827.4000, -55.681
 827.6000, -55.715
 827.8000, -55.847
 828.0000, -56.014
 828.2000, -55.801
 828.4000, -55.853
 828.6000, -55.706
 828.8000, -55.799
 829.0000, -56.013
 829.2000, -55.983
 829.4000, -56.011
 829.6000, -55.936
 829.8000, -56.027
 830.0000, -55.870
 830.2000, -55.982
 830.4000, -56.139
 830.6000, -56.117
 830.8000, -55.856
 831.0000, -56.007
 831.2000, -56.018
 831.4000, -56.009
 831.6000, -56.052
 831.8000, -56.126
 832.0000, -56.171
 832.2000, -56.054
 832.4000, -55.952
 832.6000, -56.190
 832.8000, -56.025
 833.0000, -56.205
 833.2000, -56.191
 833.4000, -56.099
 833.6000, -56.160
 833.8000, -56.194
 834.0000, -56.244
 834.2000, -56.192
 834.4000, -56.304
 834.6000, -56.195
 834.8000, -56.219
 835.0000, -56.099
 835.2000, -56.229
 835.4000, -56.208
 835.6000, -56.185
 835.8000, -56.282
 836.0000, -56.312
 836.2000, -56.336
 836.4000, -56.296
 836.6000, -56.460
 836.8000, -56.331
 837.0000, -56.362
 837.2000, -56.392
 837.4000, -56.360
 837.6000, -56.290
 837.8000, -56.399
 838.0000, -56.410
 838.2000, -56.428
 838.4000, -56.466
 838.6000, -56.389
 838.8000, -56.477
 839.0000, -56.366
 839.2000, -56.345
 839.4000, -56.544
 839.6000, -56.503
 839.8000, -56.590
 840.0000, -56.377
 840.2000, -56.618
 840.4000, -56.497
 840.6000, -56.568
 840.8000, -56.582
 841.0000, -56.404
 841.2000, -56.579
 841.4000, -56.605
 841.6000, -56.580
 841.8000, -56.498
 842.0000, -56.508
 842.2000, -56.711
 842.4000, -56.701
 842.6000, -56.726
 842.8000, -56.668
 843.0000, -56.787
 843.2000, -56.637
 843.4000, -56.830
 843.6000, -56.748
 843.8000, -56.915
 844.0000, -56.738
 844.2000, -56.837
 844.4000, -56.801
 844.6000, -56.677
 844.8000, -56.793
 845.0000, -56.762
 845.2000, -56.789
 845.4000, -56.849
 845.6000, -56.787
 845.8000, -56.896
 846.0000, -56.944
 846.2000, -56.887
 846.4000, -56.912
 846.6000, -56.937
 846.8000, -57.057
 847.0000, -56.933
 847.2000, -56.851
 847.4000, -56.997
 847.6000, -56.970
 847.8000, -56.973
 848.0000, -56.933
 848.2000, -56.936
 848.4000, -56.791
 848.6000, -56.891
 848.8000, -57.027
 849.0000, -57.041
 849.2000, -57.085
 849.4000, -57.042
 849.6000, -56.963
 849.8000, -57.058
 850.0000, -57.068
 850.2000, -57.191
 850.4000, -56.990
 850.6000, -57.096
 850.8000, -57.093
 851.0000, -57.089
 851.2000, -57.144
 851.4000, -57.189
 851.6000, -57.140
 851.8000, -57.246
 852.0000, -57.116
 852.2000, -57.148
 852.4000, -57.248
 852.6000, -57.311
 852.8000, -57.320
 853.0000, -57.158
 853.2000, -57.435
 853.4000, -57.402
 853.6000, -57.251
 853.8000, -57.274
 854.0000, -57.229
 854.2000, -57.192
 854.4000, -57.302
 854.6000, -57.330
 854.8000, -57.229
 855.0000, -57.425
 855.2000, -57.302
 855.4000, -57.442
 855.6000, -57.422
 855.8000, -57.427
 856.0000, -57.333
 856.2000, -57.298
 856.4000, -57.370
 856.6000, -57.403
 856.8000, -57.361
 857.0000, -57.438
 857.2000, -57.473
 857.4000, -57.420
 857.6000, -57.480
 857.8000, -57.497
 858.0000, -57.576
 858.2000, -57.530
 858.4000, -57.642
 858.6000, -57.591
 858.8000, -57.461
 859.0000, -57.464
 859.2000, -57.695
 859.4000, -57.546
 859.6000, -57.697
 859.8000, -57.615
 860.0000, -57.523
 860.2000, -57.489
 860.4000, -57.509
 860.6000, -57.638
 860.8000, -57.696
 861.0000, -57.613
 861.2000, -57.661
 861.4000, -57.668
 861.6000, -57.607
 861.8000, -57.659
 862.0000, -57.638
 862.2000, -57.640
 862.4000, -57.665
 862.6000, -57.704
 862.8000, -57.678
 863.0000, -57.721
 863.2000, -57.803
 863.4000, -57.832
 863.6000, -57.866
 863.8000, -57.841
 864.0000, -57.836
 864.2000, -57.722
 864.4000, -57.831
 864.6000, -57.700
 864.8000, -57.837
 865.0000, -57.794
 865.2000, -57.760
 865.4000, -57.813
 865.6000, -57.844
 865.8000, -57.894
 866.0000, -57.948
 866.2000, -57.960
 866.4000, -57.967
 866.6000, -57.788
 866.8000, -57.933
 867.0000, -57.968
 867.2000, -58.089
 867.4000, -57.983
 867.6000, -57.781
 867.8000, -58.057
 868.0000, -57.909
 868.2000, -57.967
 868.4000, -58.020
 868.6000, -57.992
 868.8000, -58.007
 869.0000, -58.013
 869.2000, -58.137
 869.4000, -58.148
 869.6000, -58.131
 869.8000, -57.982
 870.0000, -57.986
 870.2000, -58.148
 870.4000, -58.040
 870.6000, -58.027
 870.8000, -58.127
 871.0000, -58.231
 871.2000, -58.208
 871.4000, -58.198
 871.6000, -58.142
 871.8000, -58.153
 872.0000, -58.190
 872.2000, -58.259
 872.4000, -58.292
 872.6000, -58.100
 872.8000, -58.312
 873.0000, -58.104
 873.2000, -58.245
 873.4000, -58.181
 873.6000, -58.310
 873.8000, -58.096
 874.0000, -58.206
 874.2000, -58.122
 874.4000, -58.205
 874.6000, -58.241
 874.8000, -58.454
 875.0000, -58.296
 875.2000, -58.340
 875.4000, -58.301
 875.6000, -58.375
 875.8000, -58.365
 876.0000, -58.433
 876.2000, -58.402
 876.4000, -58.335
 876.6000, -58.450
 876.8000, -58.375
 877.0000, -58.377
 877.2000, -58.309
 877.4000, -58.285
 877.6000, -58.624
 877.8000, -58.524
 878.0000, -58.380
 878.2000, -58.439
 878.4000, -58.492
 878.6000, -58.530
 878.8000, -58.397
 879.0000, -58.501
 879.2000, -58.411
 879.4000, -58.417
 879.6000, -58.464
 879.8000, -58.542
 880.0000, -58.419
 880.2000, -58.618
 880.4000, -58.350
 880.6000, -58.464
 880.8000, -58.539
 881.0000, -58.421
 881.2000, -58.471
 881.4000, -58.741
 881.6000, -58.565
 881.8000, -58.592
 882.0000, -58.569
 882.2000, -58.556
 882.4000, -58.597
 882.6000, -58.562
 882.8000, -58.453
 883.0000, -58.562
 883.2000, -58.637
 883.4000, -58.617
 883.6000, -58.648
 883.8000, -58.646
 884.0000, -58.619
 884.2000, -58.523
 884.4000, -58.663
 884.6000, -58.692
 884.8000, -58.653
 885.0000, -58.750
 885.2000, -58.668
 885.4000, -58.662
 885.6000, -58.728
 885.8000, -58.627
 886.0000, -58.717
 886.2000, -58.669
 886.4000, -58.697
 886.6000, -58.828
 886.8000, -58.731
 887.0000, -58.748
 887.2000, -58.743
 887.4000, -58.657
 887.6000, -58.906
 887.8000, -58.720
 888.0000, -58.774
 888.2000, -58.678
 888.4000, -58.785
 888.6000, -58.904
 888.8000, -58.885
 889.0000, -58.787
 889.2000, -58.775
 889.4000, -58.825
 889.6000, -58.754
 889.8000, -58.937
 890.0000, -58.763
 890.2000, -58.966
 890.4000, -58.995
 890.6000, -58.918
 890.8000, -58.884
 891.0000, -58.855
 891.2000, -58.942
 891.4000, -58.874
 891.6000, -59.088
 891.8000, -59.015
 892.0000, -58.874
 892.2000, -59.103
 892.4000, -58.877
 892.6000, -58.941
 892.8000, -58.863
 893.0000, -59.051
 893.2000, -59.011
 893.4000, -59.027
 893.6000, -58.919
 893.8000, -59.085
 894.0000, -59.025
 894.2000, -58.925
 894.4000, -59.061
 894.6000, -59.003
 894.8000, -59.011
 895.0000, -58.969
 895.2000, -58.954
 895.4000, -59.003
 895.6000, -59.061
 895.8000, -59.083
 896.0000, -59.132
 896.2000, -59.024
 896.4000, -59.025
 896.6000, -59.162
 896.8000, -59.117
 897.0000, -59.133
 897.2000, -59.252
 897.4000, -59.218
 897.6000, -59.237
 897.8000, -59.098
 898.0000, -59.113
 898.2000, -59.195
 898.4000, -59.214
 898.6000, -59.116
 898.8000, -59.265
 899.0000, -59.400
 899.2000, -59.276
 899.4000, -59.284
 899.6000, -59.337
 899.8000, -59.345
 900.0000, -59.398
 900.2000, -59.095
 900.4000, -59.316
 900.6000, -59.304
 900.8000, -59.228
 901.0000, -59.247
 901.2000, -59.269
 901.4000, -59.360
 901.6000, -59.347
 901.8000, -59.309
 902.0000, -59.273
 902.2000, -59.279
 902.4000, -59.328
 902.6000, -59.385
 902.8000, -59.358
 903.0000, -59.388
 903.2000, -59.282
 903.4000, -59.525
 903.6000, -59.297
 903.8000, -59.414
 904.0000, -59.431
 904.2000, -59.310
 904.4000, -59.516
 904.6000, -59.385
 904.8000, -59.335
 905.0000, -59.487
 905.2000, -59.428
 905.4000, -59.507
 905.6000, -59.365
 905.8000, -59.465
 906.0000, -59.480
 906.2000, -59.471
 906.4000, -59.555
 906.6000, -59.370
 906.8000, -59.593
 907.0000, -59.647
 907.2000, -59.387
 907.4000, -59.563
 907.6000, -59.686
 907.8000, -59.491
 908.0000, -59.458
 908.2000, -59.724
 908.4000, -59.700
 908.6000, -59.425
 908.8000, -59.631
 909.0000, -59.545
 909.2000, -59.651
 909.4000, -59.596
 909.6000, -59.833
 909.8000, -59.571
 910.0000, -59.617
 910.2000, -59.588
 910.4000, -59.723
 910.6000, -59.795
 910.8000, -59.676
 911.0000, -59.762
 911.2000, -59.759
 911.4000, -59.613
 911.6000, -59.695
 911.8000, -59.838
 912.0000, -59.688
 912.2000, -59.770
 912.4000, -59.639
 912.6000, -59.670
 912.8000, -59.535
 913.0000, -59.696
 913.2000, -59.812
 913.4000, -59.775
 913.6000, -59.865
 913.8000, -59.583
 914.0000, -59.645
 914.2000, -59.887
 914.4000, -59.684
 914.6000, -59.727
 914.8000, -59.727
 915.0000, -59.813
 915.2000, -59.712
 915.4000, -59.858
 915.6000, -59.982
 915.8000, -59.950
 916.0000, -59.841
 916.2000, -59.866
 916.4000, -59.776
 916.6000, -59.688
 916.8000, -59.725
 917.0000, -59.909
 917.2000, -59.860
 917.4000, -59.948
 917.6000, -59.967
 917.8000, -59.998
 918.0000, -59.802
 918.2000, -59.835
 918.4000, -59.928
 918.6000, -60.011
 918.8000, -59.997
 919.0000, -59.984
 919.2000, -59.986
 919.4000, -59.999
 919.6000, -60.180
 919.8000, -60.028
 920.0000, -60.031
 920.2000, -60.013
 920.4000, -59.968
 920.6000, -59.961
 920.8000, -59.926
 921.0000, -60.009
 921.2000, -60.039
 921.4000, -60.027
 921.6000, -60.136
 921.8000, -60.074
 922.0000, -60.089
 922.2000, -60.116
 922.4000, -60.193
 922.6000, -60.144
 922.8000, -60.100
 923.0000, -60.186
 923.2000, -60.102
 923.4000, -60.159
 923.6000, -60.256
 923.8000, -60.120
 924.0000, -60.131
 924.2000, -60.135
 924.4000, -60.118
 924.6000, -60.139
 924.8000, -60.269
 925.0000, -60.340
 925.2000, -60.181
 925.4000, -60.099
 925.6000, -60.117
 925.8000, -60.235
 926.0000, -60.187
 926.2000, -60.200
 926.4000, -60.287
 926.6000, -60.230
 926.8000, -60.209
 927.0000, -60.389
 927.2000, -60.310
 927.4000, -60.366
 927.6000, -60.341
 927.8000, -60.425
 928.0000, -60.384
 928.2000, -60.382
 928.4000, -60.338
 928.6000, -60.528
 928.8000, -60.517
 929.0000, -60.466
 929.2000, -60.355
 929.4000, -60.454
 929.6000, -60.303
 929.8000, -60.345
 930.0000, -60.431
 930.2000, -60.551
 930.4000, -60.498
 930.6000, -60.434
 930.8000, -60.443
 931.0000, -60.447
 931.2000, -60.597
 931.4000, -60.619
 931.6000, -60.523
 931.8000, -60.546
 932.0000, -60.607
 932.2000, -60.459
 932.4000, -60.569
 932.6000, -60.480
 932.8000, -60.479
 933.0000, -60.567
 933.2000, -60.725
 933.4000, -60.605
 933.6000, -60.597
 933.8000, -60.692
 934.0000, -60.643
 934.2000, -60.800
 934.4000, -60.719
 934.6000, -60.799
 934.8000, -60.805
 935.0000, -60.651
 935.2000, -60.832
 935.4000, -60.665
 935.6000, -60.623
 935.8000, -60.746
 936.0000, -60.699
 936.2000, -60.772
 936.4000, -60.732
 936.6000, -60.787
 936.8000, -60.699
 937.0000, -60.907
 937.2000, -60.948
 937.4000, -60.923
 937.6000, -60.973
 937.8000, -60.935
 938.0000, -60.850
 938.2000, -60.836
 938.4000, -60.818
 938.6000, -61.002
 938.8000, -61.020
 939.0000, -61.025
 939.2000, -60.924
 939.4000, -60.958
 939.6000, -60.989
 939.8000, -60.980
 940.0000, -61.034
 940.2000, -61.076
 940.4000, -61.010
 940.6000, -60.878
 940.8000, -60.900
 941.0000, -61.040
 941.2000, -61.091
 941.4000, -60.945
 941.6000, -61.110
 941.8000, -61.082
 942.0000, -61.038
 942.2000, -61.211
 942.4000, -61.258
 942.6000, -61.234
 942.8000, -61.222
 943.0000, -61.172
 943.2000, -61.230
 943.4000, -61.434
 943.6000, -61.370
 943.8000, -61.336
 944.0000, -61.382
 944.2000, -61.307
 944.4000, -61.320
 944.6000, -61.438
 944.8000, -61.415
 945.0000, -61.429
 945.2000, -61.319
 945.4000, -61.174
 945.6000, -61.434
 945.8000, -61.405
 946.0000, -61.337
 946.2000, -61.355
 946.4000, -61.309
 946.6000, -61.485
 946.8000, -61.421
 947.0000, -61.412
 947.2000, -61.511
 947.4000, -61.424
 947.6000, -61.294
 947.8000, -61.495
 948.0000, -61.548
 948.2000, -61.440
 948.4000, -61.498
 948.6000, -61.480
 948.8000, -61.487
 949.0000, -61.305
 949.2000, -61.507
 949.4000, -61.471
 949.6000, -61.528
 949.8000, -61.596
 950.0000, -61.684
 950.2000, -61.502
 950.4000, -61.589
 950.6000, -61.534
 950.8000, -61.666
 951.0000, -61.556
 951.2000, -61.776
 951.4000, -61.614
 951.6000, -61.680
 951.8000, -61.650
 952.0000, -61.636
 952.2000, -61.475
 952.4000, -61.705
 952.6000, -61.685
 952.8000, -61.790
 953.0000, -61.648
 953.2000, -61.801
 953.4000, -61.758
 953.6000, -61.874
 953.8000, -61.729
 954.0000, -61.810
 954.2000, -61.934
 954.4000, -62.042
 954.6000, -62.019
 954.8000, -61.900
 955.0000, -61.991
 955.2000, -62.019
 955.4000, -62.050
 955.6000, -62.056
 955.8000, -62.172
 956.0000, -62.110
 956.2000, -61.996
 956.4000, -62.075
 956.6000, -61.945
 956.8000, -62.030
 957.0000, -62.267
 957.2000, -61.929
 957.4000, -62.000
 957.6000, -62.206
 957.8000, -62.015
 958.0000, -62.226
 958.2000, -62.270
 958.4000, -62.142
 958.6000, -62.379
 958.8000, -62.050
 959.0000, -62.081
 959.2000, -62.242
 959.4000, -62.276
 959.6000, -62.020
 959.8000, -62.330
 960.0000, -62.215
 960.2000, -62.310
 960.4000, -62.088
 960.6000, -62.079
 960.8000, -62.045
 961.0000, -62.080
 961.2000, -62.337
 961.4000, -62.114
 961.6000, -62.247
 961.8000, -62.305
 962.0000, -62.182
 962.2000, -62.214
 962.4000, -62.352
 962.6000, -62.141
 962.8000, -62.101
 963.0000, -62.208
 963.2000, -62.240
 963.4000, -62.097
 963.6000, -62.299
 963.8000, -62.248
 964.0000, -62.348
 964.2000, -62.314
 964.4000, -62.285
 964.6000, -62.270
 964.8000, -62.389
 965.0000, -62.369
 965.2000, -62.239
 965.4000, -62.373
 965.6000, -62.330
 965.8000, -62.337
 966.0000, -62.350
 966.2000, -62.357
 966.4000, -62.295
 966.6000, -62.424
 966.8000, -62.319
 967.0000, -62.431
 967.2000, -62.452
 967.4000, -62.663
 967.6000, -62.538
 967.8000, -62.581
 968.0000, -62.671
 968.2000, -62.721
 968.4000, -62.502
 968.6000, -62.464
 968.8000, -62.676
 969.0000, -62.624
 969.2000, -62.637
 969.4000, -62.837
 969.6000, -62.554
 969.8000, -62.807
 970.0000, -62.673
 970.2000, -62.463
 970.4000, -62.771
 970.6000, -62.915
 970.8000, -63.049
 971.0000, -63.078
 971.2000, -62.921
 971.4000, -62.898
 971.6000, -62.892
 971.8000, -62.970
 972.0000, -62.829
 972.2000, -63.070
 972.4000, -63.161
 972.6000, -63.062
 972.8000, -63.053
 973.0000, -63.102
 973.2000, -63.114
 973.4000, -63.110
 973.6000, -62.969
 973.8000, -63.166
 974.0000, -63.230
 974.2000, -63.210
 974.4000, -63.385
 974.6000, -63.345
 974.8000, -63.517
 975.0000, -63.410
 975.2000, -63.429
 975.4000, -63.345
 975.6000, -63.573
 975.8000, -63.410
 976.0000, -63.668
 976.2000, -63.609
 976.4000, -63.624
 976.6000, -63.579
 976.8000, -63.765
 977.0000, -63.730
 977.2000, -63.775
 977.4000, -63.866
 977.6000, -63.952
 977.8000, -63.800
 978.0000, -63.777
 978.2000, -63.848
 978.4000, -63.921
 978.6000, -63.893
 978.8000, -63.878
 979.0000, -64.093
 979.2000, -63.909
 979.4000, -64.142
 979.6000, -63.947
 979.8000, -64.116
 980.0000, -64.102
 980.2000, -64.207
 980.4000, -64.122
 980.6000, -64.038
 980.8000, -64.326
 981.0000, -64.296
 981.2000, -64.175
 981.4000, -63.993
 981.6000, -64.258
 981.8000, -64.295
 982.0000, -64.072
 982.2000, -64.045
 982.4000, -63.926
 982.6000, -64.028
 982.8000, -64.120
 983.0000, -64.048
 983.2000, -64.063
 983.4000, -64.269
 983.6000, -63.972
 983.8000, -64.039
 984.0000, -64.121
 984.2000, -63.948
 984.4000, -64.038
 984.6000, -63.925
 984.8000, -63.899
 985.0000, -63.906
 985.2000, -63.870
 985.4000, -63.961
 985.6000, -63.936
 985.8000, -63.815
 986.0000, -63.831
 986.2000, -63.935
 986.4000, -63.947
 986.6000, -63.836
 986.8000, -64.091
 987.0000, -63.830
 987.2000, -63.765
 987.4000, -63.625
 987.6000, -63.746
 987.8000, -64.066
 988.0000, -63.679
 988.2000, -63.817
 988.4000, -63.930
 988.6000, -63.881
 988.8000, -63.800
 989.0000, -63.748
 989.2000, -63.760
 989.4000, -63.896
 989.6000, -63.781
 989.8000, -63.848
 990.0000, -63.766
 990.2000, -63.692
 990.4000, -63.825
 990.6000, -63.622
 990.8000, -63.761
 991.0000, -63.881
 991.2000, -63.830
 991.4000, -63.855
 991.6000, -64.012
 991.8000, -63.653
 992.0000, -63.796
 992.2000, -64.011
 992.4000, -63.872
 992.6000, -63.994
 992.8000, -64.021
 993.0000, -63.823
 993.2000, -63.945
 993.4000, -64.078
 993.6000, -63.843
 993.8000, -64.075
 994.0000, -64.126
 994.2000, -63.999
 994.4000, -63.889
 994.6000, -64.138
 994.8000, -63.988
 995.0000, -63.952
 995.2000, -63.853
 995.4000, -64.176
 995.6000, -64.011
 995.8000, -64.026
 996.0000, -64.184
 996.2000, -64.029
 996.4000, -63.952
 996.6000, -64.189
 996.8000, -64.138
 997.0000, -64.228
 997.2000, -64.025
 997.4000, -64.049
 997.6000, -64.355
 997.8000, -64.347
 998.0000, -64.254
 998.2000, -64.413
 998.4000, -64.283
 998.6000, -64.384
 998.8000, -64.455
 999.0000, -64.382
 999.2000, -64.588
 999.4000, -64.569
 999.6000, -64.728
 999.8000, -64.621
1000.0000, -64.638
1000.2000, -64.597
1000.4000, -64.444
1000.6000, -64.569
1000.8000, -64.409
1001.0000, -64.498
1001.2000, -64.575
1001.4000, -64.481
1001.6000, -64.555
1001.8000, -64.447
1002.0000, -64.386
1002.2000, -64.476
1002.4000, -64.338
1002.6000, -64.754
1002.8000, -64.594
1003.0000, -64.613
1003.2000, -64.634
1003.4000, -64.559
1003.6000, -64.530
1003.8000, -64.486
1004.0000, -64.740
1004.2000, -64.688
1004.4000, -64.632
1004.6000, -64.635
1004.8000, -64.767
1005.0000, -64.622
1005.2000, -64.814
1005.4000, -64.697
1005.6000, -64.828
1005.8000, -64.766
1006.0000, -64.768
1006.2000, -64.687
1006.4000, -64.739
1006.6000, -64.975
1006.8000, -65.008
1007.0000, -64.900
1007.2000, -65.177
1007.4000, -65.200
1007.6000, -64.962
1007.8000, -65.250
1008.0000, -65.261
1008.2000, -65.136
1008.4000, -65.290
1008.6000, -65.462
1008.8000, -65.636
1009.0000, -65.465
1009.2000, -65.775
1009.4000, -65.617
1009.6000, -65.762
1009.8000, -65.916
1010.0000, -66.026
1010.2000, -66.228
1010.4000, -66.069
1010.6000, -66.287
1010.8000, -66.239
1011.0000, -66.170
1011.2000, -66.155
1011.4000, -66.302
1011.6000, -66.325
1011.8000, -66.260
1012.0000, -66.157
1012.2000, -66.549
1012.4000, -66.203
1012.6000, -66.234
1012.8000, -66.037
1013.0000, -66.349
1013.2000, -66.351
1013.4000, -66.079
1013.6000, -66.116
1013.8000, -66.280
1014.0000, -66.192
1014.2000, -66.319
1014.4000, -66.288
1014.6000, -66.055
1014.8000, -66.013
1015.0000, -65.876
1015.2000, -66.115
1015.4000, -65.961
1015.6000, -65.967
1015.8000, -66.076
1016.0000, -66.087
1016.2000, -65.911
1016.4000, -65.912
1016.6000, -65.848
1016.8000, -65.853
1017.0000, -65.818
1017.2000, -65.651
1017.4000, -65.628
1017.6000, -65.643
1017.8000, -65.685
1018.0000, -65.749
1018.2000, -65.353
1018.4000, -65.545
1018.6000, -65.496
1018.8000, -65.581
1019.0000, -65.380
1019.2000, -65.222
1019.4000, -65.227
1019.6000, -65.178
1019.8000, -65.203
1020.0000, -65.076
1020.2000, -64.842
1020.4000, -65.014
1020.6000, -64.982
1020.8000, -64.794
1021.0000, -64.790
1021.2000, -64.803
1021.4000, -64.611
1021.6000, -64.599
1021.8000, -64.549
1022.0000, -64.573
1022.2000, -64.328
1022.4000, -64.355
1022.6000, -64.365
1022.8000, -64.451
1023.0000, -64.251
1023.2000, -64.331
1023.4000, -64.177
1023.6000, -64.153
1023.8000, -64.064
1024.0000, -64.084
1024.2000, -63.966
1024.4000, -63.934
1024.6000, -63.747
1024.8000, -63.885
1025.0000, -63.710
1025.2000, -63.656
1025.4000, -63.702
1025.6000, -63.716
1025.8000, -63.570
1026.0000, -63.584
1026.2000, -63.434
1026.4000, -63.399
1026.6000, -63.405
1026.8000, -63.353
1027.0000, -63.334
1027.2000, -63.231
1027.4000, -63.183
1027.6000, -63.178
1027.8000, -63.120
1028.0000, -63.113
1028.2000, -63.106
1028.4000, -62.880
1028.6000, -62.736
1028.8000, -62.861
1029.0000, -62.628
1029.2000, -62.688
1029.4000, -62.825
1029.6000, -62.609
1029.8000, -62.568
1030.0000, -62.543
1030.2000, -62.633
1030.4000, -62.572
1030.6000, -62.512
1030.8000, -62.505
1031.0000, -62.681
1031.2000, -62.475
1031.4000, -62.423
1031.6000, -62.566
1031.8000, -62.452
1032.0000, -62.386
1032.2000, -62.425
1032.4000, -62.350
1032.6000, -62.277
1032.8000, -62.378
1033.0000, -62.324
1033.2000, -62.379
1033.4000, -62.314
1033.6000, -62.214
1033.8000, -62.296
1034.0000, -62.158
1034.2000, -62.084
1034.4000, -62.169
1034.6000, -62.092
1034.8000, -62.102
1035.0000, -62.131
1035.2000, -62.089
1035.4000, -62.093
1035.6000, -62.243
1035.8000, -62.004
1036.0000, -62.005
1036.2000, -62.047
1036.4000, -61.982
1036.6000, -61.962
1036.8000, -61.784
1037.0000, -61.881
1037.2000, -61.892
1037.4000, -61.936
1037.6000, -62.103
1037.8000, -62.026
1038.0000, -62.006
1038.2000, -62.019
1038.4000, -61.935
1038.6000, -62.028
1038.8000, -61.931
1039.0000, -62.036
1039.2000, -61.987
1039.4000, -61.855
1039.6000, -62.025
1039.8000, -62.124
1040.0000, -62.126
1040.2000, -62.101
1040.4000, -62.065
1040.6000, -61.863
1040.8000, -61.868
1041.0000, -62.107
1041.2000, -62.067
1041.4000, -62.020
1041.6000, -62.114
1041.8000, -61.993
1042.0000, -61.931
1042.2000, -62.069
1042.4000, -61.989
1042.6000, -62.069
1042.8000, -62.045
1043.0000, -62.006
1043.2000, -61.975
1043.4000, -62.113
1043.6000, -61.897
1043.8000, -62.065
1044.0000, -61.945
1044.2000, -61.965
1044.4000, -61.980
1044.6000, -61.965
1044.8000, -61.926
1045.0000, -62.054
1045.2000, -61.906
1045.4000, -61.917
1045.6000, -61.846
1045.8000, -61.932
1046.0000, -61.843
1046.2000, -61.685
1046.4000, -61.613
1046.6000, -61.505
1046.8000, -61.749
1047.0000, -61.703
1047.2000, -61.196
1047.4000, -61.245
1047.6000, -61.238
1047.8000, -61.125
1048.0000, -60.929
1048.2000, -60.676
1048.4000, -60.547
1048.6000, -60.478
1048.8000, -60.337
1049.0000, -60.338
1049.2000, -59.797
1049.4000, -60.081
1049.6000, -59.841
1049.8000, -59.840
1050.0000, -59.684
1050.2000, -59.723
1050.4000, -59.784
1050.6000, -60.014
1050.8000, -59.780
1051.0000, -59.949
1051.2000, -59.974
1051.4000, -60.158
1051.6000, -60.034
1051.8000, -59.948
1052.0000, -60.260
1052.2000, -60.461
1052.4000, -60.366
1052.6000, -60.554
1052.8000, -60.738
1053.0000, -60.838
1053.2000, -60.835
1053.4000, -60.933
1053.6000, -60.930
1053.8000, -60.999
1054.0000, -61.206
1054.2000, -61.088
1054.4000, -61.139
1054.6000, -61.198
1054.8000, -61.181
1055.0000, -61.413
1055.2000, -61.478
1055.4000, -61.428
1055.6000, -61.439
1055.8000, -61.426
1056.0000, -61.624
1056.2000, -61.607
1056.4000, -61.670
1056.6000, -61.516
1056.8000, -61.414
1057.0000, -61.482
1057.2000, -61.437
1057.4000, -61.298
1057.6000, -61.227
1057.8000, -61.507
1058.0000, -61.330
1058.2000, -61.194
1058.4000, -61.247
1058.6000, -61.260
1058.8000, -61.189
1059.0000, -61.052
1059.2000, -60.904
1059.4000, -60.908
1059.6000, -61.020
1059.8000, -60.631
1060.0000, -60.680
1060.2000, -60.531
1060.4000, -60.273
1060.6000, -60.137
1060.8000, -59.929
1061.0000, -59.933
1061.2000, -59.795
1061.4000, -59.822
1061.6000, -59.682
1061.8000, -59.545
1062.0000, -59.419
1062.2000, -59.378
1062.4000, -59.187
1062.6000, -58.956
1062.8000, -58.713
1063.0000, -58.421
1063.2000, -57.960
1063.4000, -57.982
1063.6000, -54.139
1063.8000, -40.149
1064.0000, -35.332
1064.2000, -34.802
1064.4000, -34.752
1064.6000, -34.746
1064.8000, -35.508
1065.0000, -40.177
1065.2000, -53.362
1065.4000, -59.786
1065.6000, -58.478
1065.8000, -58.301
1066.0000, -58.823
1066.2000, -58.853
1066.4000, -58.936
1066.6000, -59.038
1066.8000, -58.834
1067.0000, -58.687
1067.2000, -58.901
1067.4000, -58.912
1067.6000, -58.990
1067.8000, -58.987
1068.0000, -59.020
1068.2000, -59.117
1068.4000, -59.289
1068.6000, -59.275
1068.8000, -59.271
1069.0000, -59.524
1069.2000, -59.622
1069.4000, -59.478
1069.6000, -59.494
1069.8000, -59.516
1070.0000, -59.598
1070.2000, -59.456
1070.4000, -59.629
1070.6000, -59.677
1070.8000, -59.539
1071.0000, -59.584
1071.2000, -59.537
1071.4000, -59.607
1071.6000, -59.696
1071.8000, -59.660
1072.0000, -59.493
1072.2000, -59.458
1072.4000, -59.575
1072.6000, -59.392
1072.8000, -59.469
1073.0000, -59.520
1073.2000, -59.510
1073.4000, -59.392
1073.6000, -59.256
1073.8000, -59.351
1074.0000, -59.332
1074.2000, -59.134
1074.4000, -59.105
1074.6000, -58.998
1074.8000, -59.048
1075.0000, -58.833
1075.2000, -58.779
1075.4000, -58.696
1075.6000, -58.559
1075.8000, -58.562
1076.0000, -58.412
1076.2000, -58.402
1076.4000, -58.263
1076.6000, -58.092
1076.8000, -57.808
1077.0000, -57.853
1077.2000, -57.647
1077.4000, -57.611
1077.6000, -57.387
1077.8000, -57.559
1078.0000, -57.374
1078.2000, -56.985
1078.4000, -56.953
1078.6000, -57.014
1078.8000, -56.625
1079.0000, -57.005
1079.2000, -56.513
1079.4000, -56.559
1079.6000, -56.210
1079.8000, -56.571
1080.0000, -56.336
1080.2000, -56.346
1080.4000, -56.341
1080.6000, -56.432
1080.8000, -56.303
1081.0000, -56.159
1081.2000, -56.324
1081.4000, -56.600
1081.6000, -56.749
1081.8000, -56.602
1082.0000, -56.560
1082.2000, -56.390
1082.4000, -56.343
1082.6000, -56.838
1082.8000, -56.764
1083.0000, -57.412
1083.2000, -56.842
1083.4000, -57.054
1083.6000, -57.062
1083.8000, -56.828
1084.0000, -57.306
1084.2000, -57.621
1084.4000, -57.214
1084.6000, -57.629
1084.8000, -57.446
1085.0000, -57.576
1085.2000, -57.624
1085.4000, -57.745
1085.6000, -57.944
1085.8000, -58.118
1086.0000, -58.183
1086.2000, -58.275
1086.4000, -58.348
1086.6000, -58.320
1086.8000, -58.313
1087.0000, -58.318
1087.2000, -58.350
1087.4000, -58.544
1087.6000, -58.594
1087.8000, -58.428
1088.0000, -58.448
1088.2000, -58.496
1088.4000, -58.536
1088.6000, -58.664
1088.8000, -58.488
1089.0000, -58.673
1089.2000, -58.514
1089.4000, -58.468
1089.6000, -58.443
1089.8000, -58.459
1090.0000, -58.547
1090.2000, -58.567
1090.4000, -58.415
1090.6000, -58.346
1090.8000, -58.302
1091.0000, -58.203
1091.2000, -58.376
1091.4000, -58.420
1091.6000, -58.293
1091.8000, -58.308
1092.0000, -58.224
1092.2000, -58.245
1092.4000, -58.079
1092.6000, -58.129
1092.8000, -58.086
1093.0000, -58.224
1093.2000, -58.040
1093.4000, -58.028
1093.6000, -57.980
1093.8000, -57.965
1094.0000, -57.987
1094.2000, -58.194
1094.4000, -58.004
1094.6000, -57.806
1094.8000, -57.859
1095.0000, -57.759
1095.2000, -57.942
1095.4000, -57.928
1095.6000, -57.556
1095.8000, -57.490
1096.0000, -57.474
1096.2000, -57.626
1096.4000, -57.552
1096.6000, -57.673
1096.8000, -57.487
1097.0000, -57.635
1097.2000, -57.416
1097.4000, -57.538
1097.6000, -57.557
1097.8000, -57.549
1098.0000, -57.363
1098.2000, -57.419
1098.4000, -57.287
1098.6000, -57.234
1098.8000, -57.244
1099.0000, -57.286
1099.2000, -57.106
1099.4000, -57.149
1099.6000, -57.144
1099.8000, -57.229
1100.0000, -57.288
1100.2000, -57.253
1100.4000, -57.137
1100.6000, -57.211
1100.8000, -56.976
1101.0000, -57.171
1101.2000, -57.270
1101.4000, -57.011
1101.6000, -57.056
1101.8000, -57.203
1102.0000, -57.096
1102.2000, -57.100
1102.4000, -57.187
1102.6000, -57.177
1102.8000, -57.010
1103.0000, -57.236
1103.2000, -57.177
1103.4000, -57.336
1103.6000, -57.230
1103.8000, -57.243
1104.0000, -57.375
1104.2000, -57.215
1104.4000, -57.049
1104.6000, -56.946
1104.8000, -57.067
1105.0000, -57.118
1105.2000, -57.224
1105.4000, -57.077
1105.6000, -57.147
1105.8000, -57.135
1106.0000, -57.193
1106.2000, -57.082
1106.4000, -57.167
1106.6000, -57.129
1106.8000, -57.234
1107.0000, -57.168
1107.2000, -57.194
1107.4000, -57.080
1107.6000, -57.113
1107.8000, -57.058
1108.0000, -57.000
1108.2000, -56.904
1108.4000, -56.978
1108.6000, -57.048
1108.8000, -57.147
1109.0000, -56.818
1109.2000, -56.941
1109.4000, -56.814
1109.6000, -56.810
1109.8000, -56.914
1110.0000, -56.864
1110.2000, -56.936
1110.4000, -56.807
1110.6000, -56.874
1110.8000, -56.715
1111.0000, -56.928
1111.2000, -56.731
1111.4000, -56.819
1111.6000, -56.765
1111.8000, -56.792
1112.0000, -56.773
1112.2000, -56.786
1112.4000, -56.661
1112.6000, -56.678
1112.8000, -56.729
1113.0000, -56.645
1113.2000, -56.684
1113.4000, -56.686
1113.6000, -56.678
1113.8000, -56.703
1114.0000, -56.591
1114.2000, -56.709
1114.4000, -56.586
1114.6000, -56.619
1114.8000, -56.616
1115.0000, -56.575
1115.2000, -56.751
1115.4000, -56.641
1115.6000, -56.690
1115.8000, -56.767
1116.0000, -56.681
1116.2000, -56.764
1116.4000, -56.675
1116.6000, -56.630
1116.8000, -56.609
1117.0000, -56.750
1117.2000, -56.738
1117.4000, -56.722
1117.6000, -56.774
1117.8000, -56.753
1118.0000, -56.769
1118.2000, -56.759
1118.4000, -56.696
1118.6000, -56.812
1118.8000, -56.826
1119.0000, -56.628
1119.2000, -56.759
1119.4000, -56.709
1119.6000, -56.880
1119.8000, -56.868
1120.0000, -56.772
1120.2000, -56.734
1120.4000, -56.843
1120.6000, -56.779
1120.8000, -56.902
1121.0000, -56.787
1121.2000, -56.884
1121.4000, -57.036
1121.6000, -56.979
1121.8000, -56.774
1122.0000, -56.796
1122.2000, -56.995
1122.4000, -56.872
1122.6000, -56.864
1122.8000, -56.803
1123.0000, -56.884
1123.2000, -56.850
1123.4000, -56.997
1123.6000, -57.079
1123.8000, -57.123
1124.0000, -57.132
1124.2000, -57.087
1124.4000, -56.976
1124.6000, -57.206
1124.8000, -57.273
1125.0000, -57.350
1125.2000, -57.246
1125.4000, -57.499
1125.6000, -57.429
1125.8000, -57.489
1126.0000, -57.360
1126.2000, -57.320
1126.4000, -57.590
1126.6000, -57.441
1126.8000, -57.410
1127.0000, -57.431
1127.2000, -57.522
1127.4000, -57.573
1127.6000, -57.533
1127.8000, -57.685
1128.0000, -57.732
1128.2000, -57.847
1128.4000, -57.656
1128.6000, -57.831
1128.8000, -57.736
1129.0000, -57.876
1129.2000, -57.841
1129.4000, -57.806
1129.6000, -57.830
1129.8000, -57.823
1130.0000, -57.806
1130.2000, -57.751
1130.4000, -57.825
1130.6000, -57.825
1130.8000, -57.989
1131.0000, -58.052
1131.2000, -57.993
1131.4000, -57.979
1131.6000, -57.927
1131.8000, -57.964
1132.0000, -58.039
1132.2000, -57.960
1132.4000, -57.983
1132.6000, -58.129
1132.8000, -58.161
1133.0000, -57.962
1133.2000, -58.132
1133.4000, -58.169
1133.6000, -58.310
1133.8000, -58.204
1134.0000, -58.264
1134.2000, -58.247
1134.4000, -58.393
1134.6000, -58.366
1134.8000, -58.306
1135.0000, -58.282
1135.2000, -58.351
1135.4000, -58.245
1135.6000, -58.230
1135.8000, -58.333
1136.0000, -58.469
1136.2000, -58.323
1136.4000, -58.458
1136.6000, -58.360
1136.8000, -58.413
1137.0000, -58.355
1137.2000, -58.381
1137.4000, -58.255
1137.6000, -58.480
1137.8000, -58.599
1138.0000, -58.496
1138.2000, -58.599
1138.4000, -58.268
1138.6000, -58.547
1138.8000, -58.621
1139.0000, -58.498
1139.2000, -58.660
1139.4000, -58.540
1139.6000, -58.603
1139.8000, -58.560
1140.0000, -58.671
1140.2000, -58.644
1140.4000, -58.726
1140.6000, -58.712
1140.8000, -58.869
1141.0000, -58.872
1141.2000, -58.775
1141.4000, -58.698
1141.6000, -58.753
1141.8000, -58.783
1142.0000, -58.829
1142.2000, -58.816
1142.4000, -58.913
1142.6000, -58.832
1142.8000, -58.774
1143.0000, -58.956
1143.2000, -59.003
1143.4000, -59.038
1143.6000, -58.972
1143.8000, -59.162
1144.0000, -59.176
1144.2000, -59.109
1144.4000, -59.088
1144.6000, -59.132
1144.8000, -58.974
1145.0000, -59.195
1145.2000, -59.111
1145.4000, -59.077
1145.6000, -59.327
1145.8000, -59.027
1146.0000, -59.049
1146.2000, -59.299
1146.4000, -59.149
1146.6000, -59.144
1146.8000, -59.243
1147.0000, -59.200
1147.2000, -59.199
1147.4000, -59.069
1147.6000, -59.277
1147.8000, -59.284
1148.0000, -59.403
1148.2000, -59.351
1148.4000, -59.360
1148.6000, -59.296
1148.8000, -59.407
1149.0000, -59.367
1149.2000, -59.328
1149.4000, -59.566
1149.6000, -59.281
1149.8000, -59.315
1150.0000, -59.414
1150.2000, -59.478
1150.4000, -59.455
1150.6000, -59.493
1150.8000, -59.472
1151.0000, -59.314
1151.2000, -59.377
1151.4000, -59.326
1151.6000, -59.389
1151.8000, -59.500
1152.0000, -59.567
1152.2000, -59.615
1152.4000, -59.597
1152.6000, -59.531
1152.8000, -59.503
1153.0000, -59.391
1153.2000, -59.295
1153.4000, -59.565
1153.6000, -59.532
1153.8000, -59.442
1154.0000, -59.381
1154.2000, -59.556
1154.4000, -59.584
1154.6000, -59.455
1154.8000, -59.482
1155.0000, -59.467
1155.2000, -59.522
1155.4000, -59.507
1155.6000, -59.558
1155.8000, -59.504
1156.0000, -59.590
1156.2000, -59.477
1156.4000, -59.550
1156.6000, -59.569
1156.8000, -59.442
1157.0000, -59.647
1157.2000, -59.606
1157.4000, -59.569
1157.6000, -59.650
1157.8000, -59.610
1158.0000, -59.699
1158.2000, -59.572
1158.4000, -59.495
1158.6000, -59.507
1158.8000, -59.616
1159.0000, -59.550
1159.2000, -59.555
1159.4000, -59.686
1159.6000, -59.600
1159.8000, -59.673
1160.0000, -59.543
1160.2000, -59.408
1160.4000, -59.422
1160.6000, -59.562
1160.8000, -59.507
1161.0000, -59.565
1161.2000, -59.527
1161.4000, -59.458
1161.6000, -59.547
1161.8000, -59.522
1162.0000, -59.524
1162.2000, -59.613
1162.4000, -59.478
1162.6000, -59.578
1162.8000, -59.560
1163.0000, -59.560
1163.2000, -59.521
1163.4000, -59.561
1163.6000, -59.573
1163.8000, -59.615
1164.0000, -59.464
1164.2000, -59.568
1164.4000, -59.531
1164.6000, -59.588
1164.8000, -59.642
1165.0000, -59.711
1165.2000, -59.666
1165.4000, -59.659
1165.6000, -59.597
1165.8000, -59.541
1166.0000, -59.677
1166.2000, -59.530
1166.4000, -59.522
1166.6000, -59.606
1166.8000, -59.534
1167.0000, -59.988
1167.2000, -59.654
1167.4000, -59.664
1167.6000, -59.682
1167.8000, -59.628
1168.0000, -59.778
1168.2000, -59.790
1168.4000, -59.715
1168.6000, -59.829
1168.8000, -59.622
1169.0000, -59.687
1169.2000, -59.785
1169.4000, -59.623
1169.6000, -59.654
1169.8000, -59.679
1170.0000, -59.613
1170.2000, -59.909
1170.4000, -59.855
1170.6000, -59.822
1170.8000, -59.862
1171.0000, -59.945
1171.2000, -59.963
1171.4000, -59.931
1171.6000, -59.927
1171.8000, -59.881
1172.0000, -60.057
1172.2000, -59.982
1172.4000, -59.946
1172.6000, -59.887
1172.8000, -59.903
1173.0000, -60.052
1173.2000, -59.954
1173.4000, -60.133
1173.6000, -60.032
1173.8000, -60.034
1174.0000, -60.032
1174.2000, -59.999
1174.4000, -59.906
1174.6000, -59.859
1174.8000, -60.190
1175.0000, -60.114
1175.2000, -60.156
1175.4000, -60.069
1175.6000, -60.100
1175.8000, -60.229
1176.0000, -60.181
1176.2000, -60.238
1176.4000, -60.094
1176.6000, -60.273
1176.8000, -60.193
1177.0000, -60.405
1177.2000, -60.104
1177.4000, -60.463
1177.6000, -60.355
1177.8000, -60.146
1178.0000, -60.209
1178.2000, -60.225
1178.4000, -60.283
1178.6000, -60.207
1178.8000, -60.318
1179.0000, -60.439
1179.2000, -60.362
1179.4000, -60.314
1179.6000, -60.507
1179.8000, -60.361
1180.0000, -60.418
1180.2000, -60.377
1180.4000, -60.430
1180.6000, -60.391
1180.8000, -60.381
1181.0000, -60.565
1181.2000, -60.554
1181.4000, -60.549
1181.6000, -60.590
1181.8000, -60.519
1182.0000, -60.507
1182.2000, -60.560
1182.4000, -60.450
1182.6000, -60.677
1182.8000, -60.705
1183.0000, -60.631
1183.2000, -60.641
1183.4000, -60.710
1183.6000, -60.660
1183.8000, -60.549
1184.0000, -60.639
1184.2000, -60.723
1184.4000, -60.625
1184.6000, -60.720
1184.8000, -60.659
1185.0000, -60.733
1185.2000, -60.600
1185.4000, -60.803
1185.6000, -60.757
1185.8000, -60.699
1186.0000, -60.874
1186.2000, -60.731
1186.4000, -60.684
1186.6000, -60.782
1186.8000, -60.862
1187.0000, -60.833
1187.2000, -60.887
1187.4000, -60.867
1187.6000, -61.081
1187.8000, -61.067
1188.0000, -60.893
1188.2000, -60.826
1188.4000, -60.951
1188.6000, -60.949
1188.8000, -60.970
1189.0000, -60.934
1189.2000, -61.074
1189.4000, -60.971
1189.6000, -61.056
1189.8000, -61.103
1190.0000, -61.108
1190.2000, -61.249
1190.4000, -61.058
1190.6000, -61.092
1190.8000, -61.080
1191.0000, -61.246
1191.2000, -61.148
1191.4000, -61.069
1191.6000, -61.061
1191.8000, -61.199
1192.0000, -61.253
1192.2000, -61.166
1192.4000, -61.091
1192.6000, -61.258
1192.8000, -61.184
1193.0000, -61.056
1193.2000, -61.167
1193.4000, -61.197
1193.6000, -61.283
1193.8000, -61.194
1194.0000, -61.222
1194.2000, -61.127
1194.4000, -61.164
1194.6000, -61.328
1194.8000, -61.303
1195.0000, -61.127
1195.2000, -61.381
1195.4000, -61.277
1195.6000, -61.206
1195.8000, -61.428
1196.0000, -61.159
1196.2000, -61.383
1196.4000, -61.378
1196.6000, -61.231
1196.8000, -61.222
1197.0000, -61.290
1197.2000, -61.294
1197.4000, -61.435
1197.6000, -61.376
1197.8000, -61.467
1198.0000, -61.635
1198.2000, -61.480
1198.4000, -61.381
1198.6000, -61.459
1198.8000, -61.304
1199.0000, -61.504
1199.2000, -61.289
1199.4000, -61.327
1199.6000, -61.574
1199.8000, -61.590
1200.0000, -61.538
1200.2000, -61.469
1200.4000, -61.620
1200.6000, -61.425
1200.8000, -61.558
1201.0000, -61.673
1201.2000, -61.528
1201.4000, -61.777
1201.6000, -61.603
1201.8000, -61.604
1202.0000, -61.731
1202.2000, -61.754
1202.4000, -61.833
1202.6000, -61.741
1202.8000, -61.852
1203.0000, -61.816
1203.2000, -61.702
1203.4000, -61.803
1203.6000, -61.616
1203.8000, -61.827
1204.0000, -61.602
1204.2000, -61.875
1204.4000, -61.919
1204.6000, -61.857
1204.8000, -61.805
1205.0000, -61.777
1205.2000, -62.009
1205.4000, -61.884
1205.6000, -61.831
1205.8000, -61.885
1206.0000, -61.858
1206.2000, -61.999
1206.4000, -61.845
1206.6000, -61.908
1206.8000, -61.891
1207.0000, -61.938
1207.2000, -62.001
1207.4000, -62.017
1207.6000, -61.994
1207.8000, -61.974
1208.0000, -62.060
1208.2000, -61.869
1208.4000, -62.104
1208.6000, -61.863
1208.8000, -62.047
1209.0000, -61.997
1209.2000, -62.085
1209.4000, -62.088
1209.6000, -62.099
1209.8000, -62.154
1210.0000, -62.109
1210.2000, -62.271
1210.4000, -62.070
1210.6000, -61.979
1210.8000, -62.052
1211.0000, -62.138
1211.2000, -62.223
1211.4000, -62.006
1211.6000, -62.079
1211.8000, -62.150
1212.0000, -62.157
1212.2000, -62.260
1212.4000, -62.237
1212.6000, -62.195
1212.8000, -62.208
1213.0000, -62.006
1213.2000, -62.087
1213.4000, -62.408
1213.6000, -62.300
1213.8000, -62.250
1214.0000, -62.192
1214.2000, -62.232
1214.4000, -62.192
1214.6000, -62.332
1214.8000, -62.339
1215.0000, -62.457
1215.2000, -62.257
1215.4000, -62.163
1215.6000, -62.301
1215.8000, -62.396
1216.0000, -62.417
1216.2000, -62.358
1216.4000, -62.347
1216.6000, -62.320
1216.8000, -62.425
1217.0000, -62.342
1217.2000, -62.488
1217.4000, -62.356
1217.6000, -62.531
1217.8000, -62.398
1218.0000, -62.428
1218.2000, -62.422
1218.4000, -62.677
1218.6000, -62.465
1218.8000, -62.397
1219.0000, -62.433
1219.2000, -62.358
1219.4000, -62.598
1219.6000, -62.481
1219.8000, -62.499
1220.0000, -62.443
1220.2000, -62.482
1220.4000, -62.601
1220.6000, -62.483
1220.8000, -62.558
1221.0000, -62.636
1221.2000, -62.638
1221.4000, -62.603
1221.6000, -62.525
1221.8000, -62.609
1222.0000, -62.731
1222.2000, -62.840
1222.4000, -62.710
1222.6000, -62.664
1222.8000, -62.570
1223.0000, -62.688
1223.2000, -62.639
1223.4000, -62.718
1223.6000, -62.794
1223.8000, -62.753
1224.0000, -62.611
1224.2000, -62.686
1224.4000, -62.741
1224.6000, -62.697
1224.8000, -62.738
1225.0000, -62.842
1225.2000, -62.658
1225.4000, -62.689
1225.6000, -62.723
1225.8000, -62.931
1226.0000, -62.893
1226.2000, -62.757
1226.4000, -62.841
1226.6000, -62.905
1226.8000, -62.756
1227.0000, -62.884
1227.2000, -62.951
1227.4000, -62.782
1227.6000, -62.977
1227.8000, -62.943
1228.0000, -62.879
1228.2000, -62.967
1228.4000, -62.935
1228.6000, -62.913
1228.8000, -62.999
1229.0000, -62.931
1229.2000, -63.007
1229.4000, -63.061
1229.6000, -62.898
1229.8000, -63.073
1230.0000, -62.984
1230.2000, -63.009
1230.4000, -63.121
1230.6000, -63.227
1230.8000, -63.066
1231.0000, -63.116
1231.2000, -63.097
1231.4000, -63.092
1231.6000, -63.080
1231.8000, -63.189
1232.0000, -63.130
1232.2000, -63.157
1232.4000, -63.137
1232.6000, -63.043
1232.8000, -63.019
1233.0000, -63.287
1233.2000, -63.217
1233.4000, -63.084
1233.6000, -63.252
1233.8000, -63.404
1234.0000, -63.270
1234.2000, -63.244
1234.4000, -63.151
1234.6000, -63.254
1234.8000, -63.335
1235.0000, -63.381
1235.2000, -63.274
1235.4000, -63.427
1235.6000, -63.302
1235.8000, -63.257
1236.0000, -63.224
1236.2000, -63.326
1236.4000, -63.394
1236.6000, -63.448
1236.8000, -63.315
1237.0000, -63.524
1237.2000, -63.513
1237.4000, -63.523
1237.6000, -63.540
1237.8000, -63.357
1238.0000, -63.442
1238.2000, -63.550
1238.4000, -63.451
1238.6000, -63.430
1238.8000, -63.456
1239.0000, -63.611
1239.2000, -63.517
1239.4000, -63.642
1239.6000, -63.507
1239.8000, -63.597
1240.0000, -63.547
1240.2000, -63.693
1240.4000, -63.613
1240.6000, -63.662
1240.8000, -63.695
1241.0000, -63.618
1241.2000, -63.692
1241.4000, -63.652
1241.6000, -63.472
1241.8000, -63.608
1242.0000, -63.677
1242.2000, -63.765
1242.4000, -63.572
1242.6000, -63.662
1242.8000, -63.705
1243.0000, -63.880
1243.2000, -63.782
1243.4000, -63.750
1243.6000, -63.743
1243.8000, -63.791
1244.0000, -63.672
1244.2000, -63.763
1244.4000, -63.654
1244.6000, -63.774
1244.8000, -63.869
1245.0000, -63.845
1245.2000, -63.951
1245.4000, -63.964
1245.6000, -63.929
1245.8000, -63.940
1246.0000, -63.710
1246.2000, -63.793
1246.4000, -64.006
1246.6000, -63.873
1246.8000, -64.037
1247.0000, -63.871
1247.2000, -63.929
1247.4000, -63.874
1247.6000, -63.901
1247.8000, -64.087
1248.0000, -64.031
1248.2000, -63.884
1248.4000, -64.030
1248.6000, -63.973
1248.8000, -64.143
1249.0000, -63.928
1249.2000, -64.034
1249.4000, -64.113
1249.6000, -64.020
1249.8000, -63.975
1250.0000, -64.261
1250.2000, -63.909
1250.4000, -63.936
1250.6000, -63.981
1250.8000, -64.296
1251.0000, -64.241
1251.2000, -64.232
1251.4000, -64.061
1251.6000, -64.117
1251.8000, -64.206
1252.0000, -64.248
1252.2000, -64.170
1252.4000, -64.111
1252.6000, -64.266
1252.8000, -64.196
1253.0000, -64.280
1253.2000, -64.233
1253.4000, -64.324
1253.6000, -64.078
1253.8000, -64.055
1254.0000, -64.112
1254.2000, -64.230
1254.4000, -64.145
1254.6000, -64.302
1254.8000, -64.450
1255.0000, -64.262
1255.2000, -64.496
1255.4000, -64.282
1255.6000, -64.252
1255.8000, -64.421
1256.0000, -64.428
1256.2000, -64.338
1256.4000, -64.253
1256.6000, -64.398
1256.8000, -64.329
1257.0000, -64.415
1257.2000, -64.393
1257.4000, -64.400
1257.6000, -64.478
1257.8000, -64.514
1258.0000, -64.490
1258.2000, -64.481
1258.4000, -64.543
1258.6000, -64.494
1258.8000, -64.370
1259.0000, -64.707
1259.2000, -64.542
1259.4000, -64.579
1259.6000, -64.625
1259.8000, -64.649
1260.0000, -64.556
1260.2000, -64.606
1260.4000, -64.604
1260.6000, -64.589
1260.8000, -64.522
1261.0000, -64.675
1261.2000, -64.517
1261.4000, -64.675
1261.6000, -64.662
1261.8000, -64.810
1262.0000, -64.677
1262.2000, -64.563
1262.4000, -64.586
1262.6000, -64.569
1262.8000, -64.515
1263.0000, -64.438
1263.2000, -64.630
1263.4000, -64.758
1263.6000, -64.803
1263.8000, -64.704
1264.0000, -64.674
1264.2000, -64.813
1264.4000, -64.742
1264.6000, -64.701
1264.8000, -64.620
1265.0000, -64.796
1265.2000, -64.766
1265.4000, -64.703
1265.6000, -64.612
1265.8000, -64.661
1266.0000, -64.760
1266.2000, -64.747
1266.4000, -64.735
1266.6000, -64.889
1266.8000, -64.787
1267.0000, -64.839
1267.2000, -64.778
1267.4000, -64.794
1267.6000, -64.985
1267.8000, -64.616
1268.0000, -64.647
1268.2000, -64.842
1268.4000, -64.748
1268.6000, -64.913
1268.8000, -64.789
1269.0000, -64.871
1269.2000, -64.773
1269.4000, -64.878
1269.6000, -65.094
1269.8000, -64.907
1270.0000, -64.915
1270.2000, -64.991
1270.4000, -65.030
1270.6000, -65.015
1270.8000, -64.988
1271.0000, -64.889
1271.2000, -64.934
1271.4000, -64.956
1271.6000, -65.114
1271.8000, -64.932
1272.0000, -64.958
1272.2000, -65.109
1272.4000, -65.106
1272.6000, -65.202
1272.8000, -65.224
1273.0000, -65.050
1273.2000, -65.063
1273.4000, -65.053
1273.6000, -65.123
1273.8000, -65.395
1274.0000, -65.172
1274.2000, -65.087
1274.4000, -65.165
1274.6000, -65.299
1274.8000, -65.391
1275.0000, -65.491
1275.2000, -65.268
1275.4000, -65.163
1275.6000, -64.968
1275.8000, -65.224
1276.0000, -65.228
1276.2000, -65.259
1276.4000, -65.165
1276.6000, -65.233
1276.8000, -65.388
1277.0000, -65.270
1277.2000, -65.124
1277.4000, -65.169
1277.6000, -65.443
1277.8000, -65.551
1278.0000, -65.272
1278.2000, -65.364
1278.4000, -65.374
1278.6000, -65.535
1278.8000, -65.605
1279.0000, -65.354
1279.2000, -65.419
1279.4000, -65.454
1279.6000, -65.430
1279.8000, -65.464
1280.0000, -65.452
1280.2000, -65.359
1280.4000, -65.379
1280.6000, -65.450
1280.8000, -65.466
1281.0000, -65.442
1281.2000, -65.514
1281.4000, -65.508
1281.6000, -65.503
1281.8000, -65.549
1282.0000, -65.598
1282.2000, -65.503
1282.4000, -65.585
1282.6000, -65.584
1282.8000, -65.731
1283.0000, -65.557
1283.2000, -65.599
1283.4000, -65.646
1283.6000, -65.626
1283.8000, -65.526
1284.0000, -65.602
1284.2000, -65.661
1284.4000, -65.512
1284.6000, -65.544
1284.8000, -65.595
1285.0000, -65.586
1285.2000, -65.558
1285.4000, -65.542
1285.6000, -65.683
1285.8000, -65.742
1286.0000, -65.730
1286.2000, -65.763
1286.4000, -65.595
1286.6000, -65.665
1286.8000, -65.548
1287.0000, -65.683
1287.2000, -65.663
1287.4000, -65.745
1287.6000, -65.605
1287.8000, -65.762
1288.0000, -65.694
1288.2000, -65.842
1288.4000, -65.600
1288.6000, -65.614
1288.8000, -65.912
1289.0000, -65.652
1289.2000, -65.770
1289.4000, -65.621
1289.6000, -65.934
1289.8000, -65.852
1290.0000, -65.729
1290.2000, -65.821
1290.4000, -65.762
1290.6000, -65.748
1290.8000, -65.836
1291.0000, -65.771
1291.2000, -66.030
1291.4000, -65.838
1291.6000, -65.967
1291.8000, -65.981
1292.0000, -66.044
1292.2000, -65.886
1292.4000, -65.920
1292.6000, -65.947
1292.8000, -66.073
1293.0000, -65.773
1293.2000, -65.949
1293.4000, -66.005
1293.6000, -65.932
1293.8000, -65.919
1294.0000, -65.868
1294.2000, -65.835
1294.4000, -65.933
1294.6000, -66.034
1294.8000, -66.147
1295.0000, -66.037
1295.2000, -66.223
1295.4000, -65.967
1295.6000, -65.972
1295.8000, -66.142
1296.0000, -66.159
1296.2000, -66.192
1296.4000, -65.947
1296.6000, -66.019
1296.8000, -66.115
1297.0000, -66.234
1297.2000, -66.123
1297.4000, -66.217
1297.6000, -66.285
1297.8000, -65.922
1298.0000, -66.199
1298.2000, -66.299
1298.4000, -66.194
1298.6000, -66.275
1298.8000, -66.399
1299.0000, -66.171
1299.2000, -66.135
1299.4000, -66.357
1299.6000, -66.356
1299.8000, -66.155
1300.0000, -66.217
1300.2000, -66.314
1300.4000, -66.380
1300.6000, -66.396
1300.8000, -66.377
1301.0000, -66.241
1301.2000, -66.438
1301.4000, -66.460
1301.6000, -66.484
1301.8000, -66.325
1302.0000, -66.386
1302.2000, -66.333
1302.4000, -66.387
1302.6000, -66.389
1302.8000, -66.407
1303.0000, -66.454
1303.2000, -66.548
1303.4000, -66.470
1303.6000, -66.601
1303.8000, -66.455
1304.0000, -66.577
1304.2000, -66.401
1304.4000, -66.437
1304.6000, -66.418
1304.8000, -66.625
1305.0000, -66.628
1305.2000, -66.446
1305.4000, -66.720
1305.6000, -66.572
1305.8000, -66.606
1306.0000, -66.523
1306.2000, -66.464
1306.4000, -66.582
1306.6000, -66.799
1306.8000, -66.673
1307.0000, -66.612
1307.2000, -66.407
1307.4000, -66.500
1307.6000, -66.714
1307.8000, -66.645
1308.0000, -66.680
1308.2000, -66.674
1308.4000, -66.740
1308.6000, -66.640
1308.8000, -66.829
1309.0000, -66.641
1309.2000, -66.884
1309.4000, -66.691
1309.6000, -66.725
1309.8000, -66.650
1310.0000, -66.839
1310.2000, -66.878
1310.4000, -66.920
1310.6000, -66.725
1310.8000, -66.757
1311.0000, -66.857
1311.2000, -66.697
1311.4000, -66.851
1311.6000, -66.946
1311.8000, -67.025
1312.0000, -66.975
1312.2000, -66.754
1312.4000, -66.879
1312.6000, -66.931
1312.8000, -66.921
1313.0000, -66.853
1313.2000, -66.721
1313.4000, -66.929
1313.6000, -66.971
1313.8000, -66.940
1314.0000, -66.994
1314.2000, -67.079
1314.4000, -66.984
1314.6000, -66.776
1314.8000, -67.003
1315.0000, -66.891
1315.2000, -67.127
1315.4000, -66.992
1315.6000, -67.140
1315.8000, -66.968
1316.0000, -66.961
1316.2000, -66.894
1316.4000, -67.076
1316.6000, -67.049
1316.8000, -67.105
1317.0000, -67.126
1317.2000, -67.159
1317.4000, -67.193
1317.6000, -67.286
1317.8000, -66.946
1318.0000, -67.070
1318.2000, -67.209
1318.4000, -67.067
1318.6000, -67.132
1318.8000, -67.172
1319.0000, -67.169
1319.2000, -67.286
1319.4000, -67.178
1319.6000, -67.172
1319.8000, -67.257
1320.0000, -67.319
1320.2000, -67.222
1320.4000, -67.336
1320.6000, -67.193
1320.8000, -67.201
1321.0000, -67.259
1321.2000, -67.237
1321.4000, -67.231
1321.6000, -67.324
1321.8000, -67.327
1322.0000, -67.302
1322.2000, -67.289
1322.4000, -67.343
1322.6000, -67.476
1322.8000, -67.459
1323.0000, -67.429
1323.2000, -67.227
1323.4000, -67.559
1323.6000, -67.206
1323.8000, -67.335
1324.0000, -67.522
1324.2000, -67.521
1324.4000, -67.511
1324.6000, -67.706
1324.8000, -67.349
1325.0000, -67.419
1325.2000, -67.426
1325.4000, -67.498
1325.6000, -67.487
1325.8000, -67.760
1326.0000, -67.564
1326.2000, -67.540
1326.4000, -67.703
1326.6000, -67.565
1326.8000, -67.572
1327.0000, -67.457
1327.2000, -67.687
1327.4000, -67.713
1327.6000, -67.555
1327.8000, -67.655
1328.0000, -67.839
1328.2000, -67.783
1328.4000, -67.758
1328.6000, -67.683
1328.8000, -67.781
1329.0000, -67.788
1329.2000, -67.540
1329.4000, -67.838
1329.6000, -67.894
1329.8000, -67.922
1330.0000, -67.882
1330.2000, -67.873
1330.4000, -67.826
1330.6000, -67.888
1330.8000, -67.815
1331.0000, -67.984
1331.2000, -67.836
1331.4000, -67.890
1331.6000, -67.909
1331.8000, -67.811
1332.0000, -68.002
1332.2000, -67.893
1332.4000, -68.099
1332.6000, -68.037
1332.8000, -67.754
1333.0000, -67.970
1333.2000, -67.924
1333.4000, -67.947
1333.6000, -68.099
1333.8000, -68.141
1334.0000, -68.137
1334.2000, -68.152
1334.4000, -68.224
1334.6000, -68.263
1334.8000, -68.190
1335.0000, -67.991
1335.2000, -68.003
1335.4000, -68.112
1335.6000, -68.307
1335.8000, -68.264
1336.0000, -68.283
1336.2000, -68.452
1336.4000, -68.337
1336.6000, -68.216
1336.8000, -68.202
1337.0000, -68.266
1337.2000, -68.272
1337.4000, -68.267
1337.6000, -68.469
1337.8000, -68.237
1338.0000, -68.352
1338.2000, -68.431
1338.4000, -68.402
1338.6000, -68.559
1338.8000, -68.269
1339.0000, -68.417
1339.2000, -68.159
1339.4000, -68.313
1339.6000, -68.388
1339.8000, -68.296
1340.0000, -68.583
1340.2000, -68.429
1340.4000, -68.357
1340.6000, -68.465
1340.8000, -68.422
1341.0000, -68.347
1341.2000, -68.613
1341.4000, -68.623
1341.6000, -68.763
1341.8000, -68.658
1342.0000, -68.616
1342.2000, -68.623
1342.4000, -68.734
1342.6000, -68.581
1342.8000, -68.815
1343.0000, -68.587
1343.2000, -68.550
1343.4000, -68.735
1343.6000, -68.666
1343.8000, -68.753
1344.0000, -68.606
1344.2000, -68.613
1344.4000, -68.928
1344.6000, -68.988
1344.8000, -68.876
1345.0000, -68.781
1345.2000, -68.675
1345.4000, -68.827
1345.6000, -69.039
1345.8000, -68.767
1346.0000, -68.698
1346.2000, -68.808
1346.4000, -68.922
1346.6000, -69.012
1346.8000, -68.890
1347.0000, -69.031
1347.2000, -69.029
1347.4000, -69.029
1347.6000, -69.309
1347.8000, -69.116
1348.0000, -69.112
1348.2000, -69.003
1348.4000, -69.032
1348.6000, -68.866
1348.8000, -69.223
1349.0000, -68.790
1349.2000, -68.853
1349.4000, -68.911
1349.6000, -68.755
1349.8000, -69.036
1350.0000, -69.215
1350.2000, -69.026
1350.4000, -69.501
1350.6000, -69.326
1350.8000, -69.345
1351.0000, -69.465
1351.2000, -69.627
1351.4000, -69.347
1351.6000, -69.225
1351.8000, -69.537
1352.0000, -69.727
1352.2000, -69.400
1352.4000, -69.495
1352.6000, -69.775
1352.8000, -69.850
1353.0000, -69.645
1353.2000, -69.731
1353.4000, -69.823
1353.6000, -69.385
1353.8000, -69.562
1354.0000, -69.859
1354.2000, -69.689
1354.4000, -70.168
1354.6000, -70.035
1354.8000, -70.206
1355.0000, -70.224
1355.2000, -70.009
1355.4000, -70.143
1355.6000, -70.117
1355.8000, -70.257
1356.0000, -70.358
1356.2000, -69.978
1356.4000, -69.643
1356.6000, -69.970
1356.8000, -70.212
1357.0000, -70.340
1357.2000, -70.027
1357.4000, -70.090
1357.6000, -70.030
1357.8000, -69.705
1358.0000, -70.113
1358.2000, -70.123
1358.4000, -70.287
1358.6000, -70.346
1358.8000, -70.060
1359.0000, -70.183
1359.2000, -70.497
1359.4000, -70.536
1359.6000, -70.770
1359.8000, -71.002
1360.0000, -70.483
1360.2000, -70.263
1360.4000, -70.482
1360.6000, -70.627
1360.8000, -71.126
1361.0000, -71.072
1361.2000, -71.167
1361.4000, -71.208
1361.6000, -71.101
1361.8000, -71.306
1362.0000, -72.273
1362.2000, -71.548
1362.4000, -71.708
1362.6000, -71.383
1362.8000, -70.850
1363.0000, -70.436
1363.2000, -70.458
1363.4000, -70.533
1363.6000, -70.440
1363.8000, -70.327
1364.0000, -70.725
1364.2000, -71.414
1364.4000, -71.439
1364.6000, -71.569
1364.8000, -71.434
1365.0000, -71.811
1365.2000, -71.345
1365.4000, -71.331
1365.6000, -71.410
1365.8000, -70.776
1366.0000, -70.637
1366.2000, -70.617
1366.4000, -70.822
1366.6000, -70.904
1366.8000, -71.054
1367.0000, -71.027
1367.2000, -71.420
1367.4000, -71.675
1367.6000, -71.497
1367.8000, -71.723
1368.0000, -71.734
1368.2000, -71.827
1368.4000, -71.691
1368.6000, -72.122
1368.8000, -71.439
1369.0000, -71.138
1369.2000, -70.886
1369.4000, -70.936
1369.6000, -71.299
1369.8000, -71.525
1370.0000, -71.397
1370.2000, -71.516
1370.4000, -71.299
1370.6000, -71.706
1370.8000, -71.628
1371.0000, -72.322
1371.2000, -72.209
1371.4000, -71.832
1371.6000, -71.506
1371.8000, -71.963
1372.0000, -71.902
1372.2000, -71.747
1372.4000, -71.632
1372.6000, -71.840
1372.8000, -71.559
1373.0000, -71.565
1373.2000, -71.700
1373.4000, -71.670
1373.6000, -71.659
1373.8000, -71.529
1374.0000, -71.512
1374.2000, -71.697
1374.4000, -71.811
1374.6000, -71.912
1374.8000, -71.874
1375.0000, -71.587
1375.2000, -71.782
1375.4000, -71.941
1375.6000, -72.006
1375.8000, -72.007
1376.0000, -71.961
1376.2000, -72.264
1376.4000, -72.168
1376.6000, -72.468
1376.8000, -72.705
1377.0000, -72.962
1377.2000, -72.804
1377.4000, -71.975
1377.6000, -72.173
1377.8000, -72.198
1378.0000, -72.179
1378.2000, -72.813
1378.4000, -73.069
1378.6000, -73.108
1378.8000, -73.333
1379.0000, -72.759
1379.2000, -72.310
1379.4000, -72.446
1379.6000, -72.652
1379.8000, -73.039
1380.0000, -72.796
1380.2000, -73.803
1380.4000, -74.631
1380.6000, -74.150
1380.8000, -74.082
1381.0000, -74.286
1381.2000, -73.744
1381.4000, -73.208
1381.6000, -72.908
1381.8000, -72.628
1382.0000, -73.151
1382.2000, -73.302
1382.4000, -74.438
1382.6000, -75.480
1382.8000, -75.097
1383.0000, -74.745
1383.2000, -73.525
1383.4000, -74.285
1383.6000, -73.669
1383.8000, -73.560
1384.0000, -73.428
1384.2000, -73.412
1384.4000, -73.519
1384.6000, -73.840
1384.8000, -73.839
1385.0000, -73.974
1385.2000, -74.600
1385.4000, -74.415
1385.6000, -74.588
1385.8000, -73.931
1386.0000, -74.647
1386.2000, -74.273
1386.4000, -73.642
1386.6000, -73.510
1386.8000, -74.094
1387.0000, -74.047
1387.2000, -74.257
1387.4000, -74.233
1387.6000, -74.511
1387.8000, -75.211
1388.0000, -76.302
1388.2000, -75.191
1388.4000, -74.632
1388.6000, -74.496
1388.8000, -74.122
1389.0000, -74.187
1389.2000, -74.571
1389.4000, -74.373
1389.6000, -74.698
1389.8000, -74.004
1390.0000, -74.527
1390.2000, -74.617
1390.4000, -74.673
1390.6000, -74.140
1390.8000, -74.410
1391.0000, -74.761
1391.2000, -74.805
1391.4000, -74.474
1391.6000, -74.437
1391.8000, -75.063
1392.0000, -75.471
1392.2000, -76.438
1392.4000, -75.482
1392.6000, -75.453
1392.8000, -75.830
1393.0000, -75.272
1393.2000, -75.349
1393.4000, -74.941
1393.6000, -74.841
1393.8000, -75.896
1394.0000, -74.665
1394.2000, -75.124
1394.4000, -74.843
1394.6000, -75.821
1394.8000, -76.095
1395.0000, -76.130
1395.2000, -76.111
1395.4000, -76.309
1395.6000, -76.477
1395.8000, -76.291
1396.0000, -76.776
1396.2000, -76.814
1396.4000, -76.178
1396.6000, -75.719
1396.8000, -76.096
1397.0000, -75.345
1397.2000, -76.659
1397.4000, -75.852
1397.6000, -75.779
1397.8000, -76.050
1398.0000, -76.103
1398.2000, -76.622
1398.4000, -75.580
1398.6000, -76.497
1398.8000, -75.109
1399.0000, -76.335
1399.2000, -75.609
1399.4000, -77.159
1399.6000, -76.616
1399.8000, -76.239
1400.0000, -76.170
1400.2000, -77.051
1400.4000, -78.753
1400.6000, -77.905
1400.8000, -77.327
1401.0000, -76.741
1401.2000, -76.107
1401.4000, -75.782
1401.6000, -76.093
1401.8000, -76.990
1402.0000, -75.519
1402.2000, -76.892
1402.4000, -76.298
1402.6000, -76.517
1402.8000, -75.279
1403.0000, -76.480
1403.2000, -76.988
1403.4000, -76.529
1403.6000, -75.661
1403.8000, -75.750
1404.0000, -76.387
1404.2000, -76.451
1404.4000, -77.089
1404.6000, -77.987
1404.8000, -78.881
1405.0000, -78.152
1405.2000, -77.538
1405.4000, -77.196
1405.6000, -76.400
1405.8000, -76.688
1406.0000, -76.401
1406.2000, -77.390
1406.4000, -76.915
1406.6000, -77.392
1406.8000, -77.129
1407.0000, -77.632
1407.2000, -77.969
1407.4000, -77.011
1407.6000, -77.071
1407.8000, -77.471
1408.0000, -76.691
1408.2000, -76.377
1408.4000, -76.443
1408.6000, -76.681
1408.8000, -77.057
1409.0000, -76.819
1409.2000, -77.741
1409.4000, -77.369
1409.6000, -77.190
1409.8000, -76.999
1410.0000, -75.677
1410.2000, -76.899
1410.4000, -76.056
1410.6000, -76.002
1410.8000, -76.534
1411.0000, -75.528
1411.2000, -75.611
1411.4000, -76.372
1411.6000, -75.763
1411.8000, -76.943
1412.0000, -76.577
1412.2000, -76.288
1412.4000, -77.352
1412.6000, -76.211
1412.8000, -76.091
1413.0000, -76.492
1413.2000, -77.863
1413.4000, -77.062
1413.6000, -76.626
1413.8000, -77.447
1414.0000, -77.512
1414.2000, -76.147
1414.4000, -77.536
1414.6000, -76.450
1414.8000, -77.769
1415.0000, -76.695
1415.2000, -76.291
1415.4000, -77.370
1415.6000, -76.111
1415.8000, -76.365
1416.0000, -76.323
1416.2000, -76.228
1416.4000, -76.700
1416.6000, -76.447
1416.8000, -76.173
1417.0000, -76.954
1417.2000, -77.426
1417.4000, -76.110
1417.6000, -76.931
1417.8000, -77.589
1418.0000, -77.019
1418.2000, -76.434
1418.4000, -76.914
1418.6000, -77.122
1418.8000, -77.144
1419.0000, -76.558
1419.2000, -76.861
1419.4000, -77.814
1419.6000, -77.855
1419.8000, -76.312
1420.0000, -76.614
1420.2000, -76.522
1420.4000, -76.652
1420.6000, -76.504
1420.8000, -77.727
1421.0000, -76.712
1421.2000, -77.284
1421.4000, -76.960
1421.6000, -76.051
1421.8000, -76.600
1422.0000, -76.269
1422.2000, -77.075
1422.4000, -76.564
1422.6000, -76.734
1422.8000, -76.206
1423.0000, -76.985
1423.2000, -76.924
1423.4000, -76.853
1423.6000, -76.835
1423.8000, -77.747
1424.0000, -77.125
1424.2000, -76.709
1424.4000, -76.981
1424.6000, -76.209
1424.8000, -77.452
1425.0000, -76.587
1425.2000, -75.964
1425.4000, -77.322
1425.6000, -78.451
1425.8000, -77.238
1426.0000, -76.789
1426.2000, -77.507
1426.4000, -77.071
1426.6000, -77.645
1426.8000, -76.512
1427.0000, -77.029
1427.2000, -77.557
1427.4000, -77.483
1427.6000, -76.681
1427.8000, -76.322
1428.0000, -76.405
1428.2000, -77.079
1428.4000, -77.496
1428.6000, -76.806
1428.8000, -77.623
1429.0000, -77.586
1429.2000, -77.933
1429.4000, -76.987
1429.6000, -77.170
1429.8000, -77.924
1430.0000, -77.449
1430.2000, -77.247
1430.4000, -77.928
1430.6000, -77.097
1430.8000, -77.120
1431.0000, -77.185
1431.2000, -77.173
1431.4000, -78.137
1431.6000, -76.901
1431.8000, -77.331
1432.0000, -77.583
1432.2000, -79.438
1432.4000, -76.351
1432.6000, -77.250
1432.8000, -78.211
1433.0000, -76.732
1433.2000, -77.852
1433.4000, -77.736
1433.6000, -76.206
1433.8000, -77.442
1434.0000, -77.449
1434.2000, -77.011
1434.4000, -76.820
1434.6000, -76.223
1434.8000, -77.279
1435.0000, -77.366
1435.2000, -77.324
1435.4000, -76.724
1435.6000, -77.481
1435.8000, -77.804
1436.0000, -76.984
1436.2000, -78.314
1436.4000, -78.589
1436.6000, -77.325
1436.8000, -77.646
1437.0000, -76.453
1437.2000, -78.438
1437.4000, -78.215
1437.6000, -78.342
1437.8000, -77.730
1438.0000, -77.330
1438.2000, -77.322
1438.4000, -76.683
1438.6000, -78.271
1438.8000, -76.273
1439.0000, -76.599
1439.2000, -77.546
1439.4000, -77.942
1439.6000, -77.868
1439.8000, -77.533
1440.0000, -77.194
1440.2000, -76.968
1440.4000, -76.900
1440.6000, -76.694
1440.8000, -77.415
1441.0000, -79.264
1441.2000, -77.907
1441.4000, -77.071
1441.6000, -76.875
1441.8000, -78.670
1442.0000, -77.372
1442.2000, -77.689
1442.4000, -77.447
1442.6000, -77.734
1442.8000, -78.012
1443.0000, -77.906
1443.2000, -77.084
1443.4000, -77.914
1443.6000, -77.167
1443.8000, -78.986
1444.0000, -77.929
1444.2000, -77.899
1444.4000, -77.852
1444.6000, -79.229
1444.8000, -79.094
1445.0000, -78.179
1445.2000, -77.614
1445.4000, -77.172
1445.6000, -77.713
1445.8000, -77.701
1446.0000, -78.174
1446.2000, -77.052
1446.4000, -78.079
1446.6000, -78.327
1446.8000, -76.712
1447.0000, -77.600
1447.2000, -77.507
1447.4000, -78.147
1447.6000, -78.232
1447.8000, -78.644
1448.0000, -78.027
1448.2000, -77.909
1448.4000, -77.328
1448.6000, -78.516
1448.8000, -78.629
1449.0000, -78.389
1449.2000, -78.219
1449.4000, -78.240
1449.6000, -78.327
1449.8000, -78.973
1450.0000, -79.109
1450.2000, -79.659
1450.4000, -79.137
1450.6000, -79.089
1450.8000, -79.429
1451.0000, -77.493
1451.2000, -77.870
1451.4000, -78.336
1451.6000, -79.642
1451.8000, -79.629
1452.0000, -77.536
1452.2000, -77.581
1452.4000, -78.410
1452.6000, -77.880
1452.8000, -76.526
1453.0000, -78.673
1453.2000, -79.042
1453.4000, -79.347
1453.6000, -78.643
1453.8000, -78.217
1454.0000, -77.620
1454.2000, -78.234
1454.4000, -78.437
1454.6000, -78.664
1454.8000, -77.853
1455.0000, -78.458
1455.2000, -79.915
1455.4000, -77.979
1455.6000, -78.059
1455.8000, -78.748
1456.0000, -77.622
1456.2000, -77.523
1456.4000, -77.273
1456.6000, -78.609
1456.8000, -78.934
1457.0000, -78.976
1457.2000, -78.753
1457.4000, -78.292
1457.6000, -78.606
1457.8000, -77.786
1458.0000, -78.663
1458.2000, -78.274
1458.4000, -78.615
1458.6000, -79.253
1458.8000, -80.123
1459.0000, -78.668
1459.2000, -78.794
1459.4000, -78.019
1459.6000, -78.718
1459.8000, -78.438
1460.0000, -77.854
1460.2000, -79.338
1460.4000, -81.272
1460.6000, -78.262
1460.8000, -77.399
1461.0000, -79.698
1461.2000, -79.022
1461.4000, -80.478
1461.6000, -79.572
1461.8000, -80.152
1462.0000, -78.908
1462.2000, -77.555
1462.4000, -78.615
1462.6000, -78.451
1462.8000, -79.501
1463.0000, -80.232
1463.2000, -79.839
1463.4000, -78.995
1463.6000, -79.263
1463.8000, -78.885
1464.0000, -79.071
1464.2000, -80.871
1464.4000, -77.945
1464.6000, -78.376
1464.8000, -79.597
1465.0000, -80.828
1465.2000, -78.888
1465.4000, -80.642
1465.6000, -80.246
1465.8000, -78.352
1466.0000, -79.279
1466.2000, -78.214
1466.4000, -77.490
1466.6000, -78.549
1466.8000, -79.517
1467.0000, -78.732
1467.2000, -79.777
1467.4000, -78.916
1467.6000, -79.014
1467.8000, -78.524
1468.0000, -78.661
1468.2000, -78.919
1468.4000, -78.976
1468.6000, -79.655
1468.8000, -77.821
1469.0000, -78.323
1469.2000, -77.920
1469.4000, -78.789
1469.6000, -78.729
1469.8000, -78.270
1470.0000, -78.599
1470.2000, -80.355
1470.4000, -79.536
1470.6000, -78.308
1470.8000, -79.174
1471.0000, -78.874
1471.2000, -79.355
1471.4000, -79.282
1471.6000, -79.480
1471.8000, -80.113
1472.0000, -81.979
1472.2000, -79.380
1472.4000, -81.393
1472.6000, -79.892
1472.8000, -79.250
1473.0000, -81.771
1473.2000, -80.674
1473.4000, -78.590
1473.6000, -79.964
1473.8000, -80.922
1474.0000, -81.347
1474.2000, -79.241
1474.4000, -79.727
1474.6000, -80.301
1474.8000, -79.459
1475.0000, -80.607
1475.2000, -79.542
1475.4000, -80.397
1475.6000, -80.974
1475.8000, -80.885
1476.0000, -80.937
1476.2000, -80.114
1476.4000, -79.213
1476.6000, -80.988
1476.8000, -79.899
1477.0000, -78.184
1477.2000, -83.532
1477.4000, -80.691
1477.6000, -79.858
1477.8000, -78.521
1478.0000, -81.775
1478.2000, -80.676
1478.4000, -79.647
1478.6000, -79.611
1478.8000, -78.348
1479.0000, -78.253
1479.2000, -78.373
1479.4000, -82.007
1479.6000, -79.459
1479.8000, -81.690
1480.0000, -79.639
1480.2000, -80.638
1480.4000, -77.832
1480.6000, -80.374
1480.8000, -80.233
1481.0000, -78.936
1481.2000, -81.847
1481.4000, -81.242
1481.6000, -80.726
1481.8000, -79.782
1482.0000, -78.459
1482.2000, -81.089
1482.4000, -80.618
1482.6000, -80.015
1482.8000, -80.541
1483.0000, -78.481
1483.2000, -79.409
1483.4000, -81.095
1483.6000, -82.628
1483.8000, -80.543
1484.0000, -79.668
1484.2000, -80.297
1484.4000, -79.301
1484.6000, -82.382
1484.8000, -80.927
1485.0000, -82.009
1485.2000, -79.238
1485.4000, -79.749
1485.6000, -79.711
1485.8000, -78.470
1486.0000, -78.776
1486.2000, -80.434
1486.4000, -82.072
1486.6000, -81.306
1486.8000, -79.452
1487.0000, -80.765
1487.2000, -81.275
1487.4000, -80.056
1487.6000, -83.027
1487.8000, -81.583
1488.0000, -81.731
1488.2000, -80.839
1488.4000, -79.224
1488.6000, -80.491
1488.8000, -82.855
1489.0000, -80.857
1489.2000, -82.513
1489.4000, -84.995
1489.6000, -81.591
1489.8000, -82.460
1490.0000, -80.847
1490.2000, -80.127
1490.4000, -80.855
1490.6000, -81.788
1490.8000, -84.619
1491.0000, -80.942
1491.2000, -78.520
1491.4000, -79.982
1491.6000, -80.984
1491.8000, -81.527
1492.0000, -83.524
1492.2000, -81.857
1492.4000, -81.532
1492.6000, -83.783
1492.8000, -81.305
1493.0000, -79.085
1493.2000, -79.628
1493.4000, -80.756
1493.6000, -79.426
1493.8000, -80.360
1494.0000, -79.780
1494.2000, -80.749
1494.4000, -80.205
1494.6000, -79.430
1494.8000, -81.109
1495.0000, -81.089
1495.2000, -80.098
1495.4000, -81.009
1495.6000, -78.890
1495.8000, -80.794
1496.0000, -80.841
1496.2000, -81.839
1496.4000, -83.420
1496.6000, -82.063
1496.8000, -83.709
1497.0000, -81.499
1497.2000, -81.903
1497.4000, -79.869
1497.6000, -81.051
1497.8000, -83.020
1498.0000, -79.771
1498.2000, -81.714
1498.4000, -85.224
1498.6000, -82.612
1498.8000, -78.582
1499.0000, -83.702
1499.2000, -80.967
1499.4000, -80.043
1499.6000, -82.272
1499.8000, -79.643
1500.0000, -83.531
1500.2000, -83.188
1500.4000, -81.777
1500.6000, -82.838
1500.8000, -80.233
1501.0000, -80.862
1501.2000, -83.574
1501.4000, -80.818
1501.6000, -80.074
1501.8000, -79.826
1502.0000, -81.399
1502.2000, -80.801
1502.4000, -86.061
1502.6000, -83.219
1502.8000, -81.372
1503.0000, -82.354
1503.2000, -80.590
1503.4000, -80.355
1503.6000, -81.569
1503.8000, -81.602
1504.0000, -78.415
1504.2000, -78.749
1504.4000, -81.074
1504.6000, -82.105
1504.8000, -81.988
1505.0000, -79.832
1505.2000, -80.139
1505.4000, -80.360
1505.6000, -79.943
1505.8000, -81.840
1506.0000, -79.917
1506.2000, -79.410
1506.4000, -80.659
1506.6000, -80.738
1506.8000, -80.948
1507.0000, -88.477
1507.2000, -85.446
1507.4000, -82.775
1507.6000, -80.494
1507.8000, -81.964
1508.0000, -80.130
1508.2000, -80.528
1508.4000, -80.885
1508.6000, -81.790
1508.8000, -79.043
1509.0000, -79.866
1509.2000, -79.388
1509.4000, -81.117
1509.6000,-210.000
1509.8000, -80.633
1510.0000, -79.772
1510.2000, -80.049
1510.4000, -79.961
1510.6000, -81.047
1510.8000, -82.942
1511.0000, -79.900
1511.2000, -78.666
1511.4000, -80.109
1511.6000, -80.650
1511.8000, -82.547
1512.0000, -81.760
1512.2000, -82.656
1512.4000, -83.689
1512.6000, -81.805
1512.8000, -82.394
1513.0000, -80.618
1513.2000, -82.702
1513.4000, -94.526
1513.6000, -91.376
1513.8000, -82.670
1514.0000, -82.685
1514.2000, -80.545
1514.4000, -81.330
1514.6000, -80.507
1514.8000, -80.691
1515.0000, -81.331
1515.2000, -83.014
1515.4000, -81.786
1515.6000, -81.508
1515.8000, -81.320
1516.0000, -80.433
1516.2000, -79.583
1516.4000, -82.811
1516.6000, -83.793
1516.8000, -81.844
1517.0000, -83.440
1517.2000, -80.538
1517.4000, -82.786
1517.6000, -82.651
1517.8000, -81.543
1518.0000, -83.390
1518.2000, -81.167
1518.4000, -82.941
1518.6000, -84.458
1518.8000, -81.869
1519.0000, -81.910
1519.2000, -81.522
1519.4000, -81.870
1519.6000, -82.500
1519.8000, -81.553
1520.0000, -81.564
1520.2000, -84.141
1520.4000, -81.138
1520.6000, -80.903
1520.8000, -82.984
1521.0000, -79.794
1521.2000, -79.757
1521.4000, -81.532
1521.6000, -86.956
1521.8000, -80.235
1522.0000, -81.651
1522.2000, -83.839
1522.4000, -82.182
1522.6000, -81.138
1522.8000, -85.551
1523.0000, -84.271
1523.2000, -83.127
1523.4000, -81.093
1523.6000, -82.836
1523.8000, -82.638
1524.0000, -80.513
1524.2000, -82.106
1524.4000, -85.960
1524.6000, -83.035
1524.8000, -83.118
1525.0000, -81.038
1525.2000, -85.397
1525.4000, -82.156
1525.6000, -81.484
1525.8000, -81.697
1526.0000, -82.216
1526.2000, -83.944
1526.4000, -86.138
1526.6000, -85.546
1526.8000, -81.159
1527.0000, -84.490
1527.2000, -84.661
1527.4000, -84.984
1527.6000, -81.437
1527.8000, -93.795
1528.0000, -83.373
1528.2000, -81.358
1528.4000, -82.481
1528.6000, -81.480
1528.8000,-210.000
1529.0000, -85.247
1529.2000, -80.320
1529.4000, -81.523
1529.6000, -83.886
1529.8000, -85.148
1530.0000, -79.054
1530.2000, -81.695
1530.4000, -84.226
1530.6000, -83.953
1530.8000, -83.607
1531.0000, -84.576
1531.2000, -81.052
1531.4000, -82.039
1531.6000, -81.069
1531.8000, -82.415
1532.0000, -84.301
1532.2000, -83.912
1532.4000, -86.865
1532.6000, -82.082
1532.8000, -81.661
1533.0000, -88.740
1533.2000, -80.142
1533.4000, -81.202
1533.6000, -82.085
1533.8000, -80.837
1534.0000, -82.197
1534.2000, -82.226
1534.4000, -83.228
1534.6000, -85.865
1534.8000, -83.328
1535.0000, -86.332
1535.2000, -85.209
1535.4000, -92.514
1535.6000, -82.414
1535.8000,-210.000
1536.0000, -82.834
1536.2000, -82.302
1536.4000, -81.089
1536.6000,-210.000
1536.8000, -86.329
1537.0000, -82.362
1537.2000, -87.192
1537.4000, -83.115
1537.6000, -81.795
1537.8000, -81.746
1538.0000, -82.547
1538.2000,-210.000
1538.4000,-210.000
1538.6000, -82.289
1538.8000,-210.000
1539.0000, -84.433
1539.2000, -83.887
1539.4000, -82.922
1539.6000, -83.143
1539.8000, -84.473
1540.0000, -80.681
1540.2000, -82.957
1540.4000, -84.897
1540.6000,-210.000
1540.8000, -81.523
1541.0000, -86.240
1541.2000, -85.121
1541.4000, -81.042
1541.6000, -82.711
1541.8000, -82.097
1542.0000, -81.653
1542.2000, -84.292
1542.4000, -81.893
1542.6000, -89.667
1542.8000, -86.004
1543.0000, -84.568
1543.2000, -83.680
1543.4000, -79.597
1543.6000, -83.688
1543.8000, -82.585
1544.0000, -81.410
1544.2000,-210.000
1544.4000, -85.394
1544.6000, -80.878
1544.8000, -88.463
1545.0000, -81.892
1545.2000, -82.278
1545.4000, -88.826
1545.6000, -82.259
1545.8000, -86.339
1546.0000, -84.192
1546.2000, -90.535
1546.4000, -85.717
1546.6000,-210.000
1546.8000, -82.429
1547.0000, -84.412
1547.2000, -85.349
1547.4000, -81.334
1547.6000, -82.846
1547.8000, -82.818
1548.0000, -82.452
1548.2000, -82.734
1548.4000, -81.025
1548.6000, -84.164
1548.8000, -87.910
1549.0000, -83.675
1549.2000, -80.614
1549.4000, -82.167
1549.6000, -83.327
1549.8000, -82.552
1550.0000,-210.000
1550.2000, -87.339
1550.4000, -84.352
1550.6000, -84.262
1550.8000, -82.961
1551.0000, -88.097
1551.2000,-101.462
1551.4000, -84.789
1551.6000, -80.948
1551.8000, -83.255
1552.0000, -81.392
1552.2000, -82.519
1552.4000, -85.107
1552.6000, -86.988
1552.8000, -80.430
1553.0000, -83.792
1553.2000, -83.226
1553.4000, -83.005
1553.6000, -87.071
1553.8000, -81.695
1554.0000, -84.613
1554.2000,-210.000
1554.4000, -95.229
1554.6000, -83.135
1554.8000, -83.325
1555.0000, -84.555
1555.2000, -87.949
1555.4000,-210.000
1555.6000, -85.732
1555.8000, -85.243
1556.0000, -82.276
1556.2000, -84.624
1556.4000, -83.046
1556.6000, -83.904
1556.8000, -84.013
1557.0000, -84.114
1557.2000, -88.694
1557.4000,-210.000
1557.6000, -82.488
1557.8000, -84.099
1558.0000, -87.165
1558.2000, -82.969
1558.4000, -80.547
1558.6000, -82.927
1558.8000, -84.231
1559.0000, -84.771
1559.2000, -80.988
1559.4000, -83.622
1559.6000, -82.630
1559.8000, -82.854
1560.0000, -87.905
1560.2000, -92.634
1560.4000,-210.000
1560.6000, -82.585
1560.8000, -85.434
1561.0000,-210.000
1561.2000, -81.686
1561.4000, -82.659
1561.6000, -82.188
1561.8000,-210.000
1562.0000, -82.062
1562.2000, -84.830
1562.4000, -80.842
1562.6000, -84.221
1562.8000, -86.445
1563.0000,-210.000
1563.2000, -81.844
1563.4000,-210.000
1563.6000, -85.502
1563.8000, -83.100
1564.0000, -83.831
1564.2000, -86.038
1564.4000,-210.000
1564.6000, -83.883
1564.8000, -88.702
1565.0000, -86.892
1565.2000,-210.000
1565.4000, -81.418
1565.6000, -83.376
1565.8000, -81.770
1566.0000, -85.839
1566.2000, -86.587
1566.4000,-210.000
1566.6000, -85.017
1566.8000, -87.318
1567.0000,-210.000
1567.2000,-210.000
1567.4000, -84.582
1567.6000,-210.000
1567.8000,-101.253
1568.0000, -86.392
1568.2000, -81.561
1568.4000, -82.928
1568.6000, -84.308
1568.8000, -80.493
1569.0000, -85.984
1569.2000, -81.155
1569.4000, -87.788
1569.6000, -82.353
1569.8000, -80.457
1570.0000, -86.954
1570.2000, -85.089
1570.4000, -81.004
1570.6000, -85.239
1570.8000, -84.349
1571.0000, -84.591
1571.2000, -83.941
1571.4000, -86.836
1571.6000, -88.796
1571.8000, -82.770
1572.0000, -86.821
1572.2000, -82.982
1572.4000, -80.820
1572.6000, -86.512
1572.8000, -86.598
1573.0000, -82.717
1573.2000, -86.046
1573.4000, -83.744
1573.6000, -81.641
1573.8000,-210.000
1574.0000, -84.571
1574.2000, -83.785
1574.4000, -85.908
1574.6000, -82.905
1574.8000, -84.874
1575.0000, -82.269
1575.2000, -85.463
1575.4000, -86.633
1575.6000, -84.886
1575.8000, -96.649
1576.0000, -84.324
1576.2000, -98.175
1576.4000, -81.882
1576.6000, -84.014
1576.8000, -83.398
1577.0000,-210.000
1577.2000, -83.487
1577.4000,-210.000
1577.6000, -85.891
1577.8000, -82.077
1578.0000, -84.674
1578.2000, -83.921
1578.4000, -83.680
1578.6000, -90.044
1578.8000, -81.479
1579.0000, -84.989
1579.2000, -84.390
1579.4000, -85.304
1579.6000, -81.780
1579.8000, -85.635
1580.0000, -80.635
1580.2000, -82.032
1580.4000, -88.147
1580.6000,-210.000
1580.8000, -85.390
1581.0000, -85.449
1581.2000,-210.000
1581.4000, -83.743
1581.6000, -85.154
1581.8000, -81.516
1582.0000, -84.362
1582.2000, -82.069
1582.4000, -86.436
1582.6000, -85.440
1582.8000, -83.503
1583.0000, -84.226
1583.2000, -92.525
1583.4000, -85.606
1583.6000,-210.000
1583.8000, -90.904
1584.0000, -83.772
1584.2000, -87.998
1584.4000, -91.980
1584.6000, -83.387
1584.8000, -92.754
1585.0000, -87.562
1585.2000, -83.859
1585.4000,-210.000
1585.6000,-210.000
1585.8000, -85.577
1586.0000, -83.007
1586.2000, -81.784
1586.4000,-210.000
1586.6000, -81.740
1586.8000, -84.750
1587.0000, -85.918
1587.2000, -83.543
1587.4000, -83.304
1587.6000,-210.000
1587.8000, -85.133
1588.0000, -83.194
1588.2000, -84.487
1588.4000,-210.000
1588.6000, -84.204
1588.8000, -83.844
1589.0000,-210.000
1589.2000, -87.758
1589.4000, -83.470
1589.6000, -86.164
1589.8000, -85.415
1590.0000, -90.421
1590.2000, -85.786
1590.4000, -83.811
1590.6000, -86.688
1590.8000, -82.018
1591.0000, -92.003
1591.2000, -93.383
1591.4000,-210.000
1591.6000, -88.057
1591.8000, -88.064
1592.0000, -88.685
1592.2000, -82.368
1592.4000, -83.615
1592.6000, -81.225
1592.8000,-210.000
1593.0000, -90.239
1593.2000, -87.926
1593.4000,-210.000
1593.6000, -87.301
1593.8000,-210.000
1594.0000, -87.856
1594.2000,-210.000
1594.4000, -92.833
1594.6000, -85.535
1594.8000, -90.635
1595.0000, -87.643
1595.2000,-210.000
1595.4000,-210.000
1595.6000,-210.000
1595.8000, -85.210
1596.0000, -91.743
1596.2000, -83.904
1596.4000, -82.087
1596.6000, -92.601
1596.8000, -86.203
1597.0000,-210.000
1597.2000,-210.000
1597.4000,-210.000
1597.6000, -86.899
1597.8000, -82.497
1598.0000, -87.495
1598.2000, -87.528
1598.4000, -84.768
1598.6000,-210.000
1598.8000,-210.000
1599.0000, -85.422
1599.2000, -82.279
1599.4000, -87.802
1599.6000,-210.000
1599.8000, -89.750
1600.0000, -86.006
1600.2000, -88.560
1600.4000, -84.504
1600.6000,-210.000
1600.8000, -81.058
1601.0000,-210.000
1601.2000,-210.000
1601.4000,-210.000
1601.6000, -83.296
1601.8000, -81.792
1602.0000, -87.031
1602.2000, -86.018
1602.4000,-210.000
1602.6000, -87.657
1602.8000, -86.670
1603.0000, -90.170
1603.2000, -83.982
1603.4000,-109.243
1603.6000,-210.000
1603.8000, -87.222
1604.0000,-210.000
1604.2000,-210.000
1604.4000,-210.000
1604.6000, -91.374
1604.8000, -83.109
1605.0000, -84.270
1605.2000,-210.000
1605.4000, -89.318
1605.6000,-210.000
1605.8000, -85.792
1606.0000, -87.585
1606.2000, -91.236
1606.4000, -96.444
1606.6000, -88.371
1606.8000, -83.055
1607.0000, -84.524
1607.2000, -87.117
1607.4000, -91.548
1607.6000, -86.423
1607.8000, -84.611
1608.0000, -84.789
1608.2000,-210.000
1608.4000, -92.407
1608.6000, -85.406
1608.8000, -89.406
1609.0000, -85.790
1609.2000, -89.327
1609.4000, -85.115
1609.6000,-210.000
1609.8000,-210.000
1610.0000, -86.901
1610.2000, -89.017
1610.4000, -83.678
1610.6000,-210.000
1610.8000,-210.000
1611.0000,-210.000
1611.2000, -83.171
1611.4000, -84.469
1611.6000,-103.874
1611.8000, -85.164
1612.0000, -82.243
1612.2000, -96.004
1612.4000, -89.136
1612.6000, -91.878
1612.8000, -90.928
1613.0000, -85.987
1613.2000,-210.000
1613.4000, -87.130
1613.6000, -83.160
1613.8000, -83.529
1614.0000, -85.596
1614.2000, -85.323
1614.4000,-210.000
1614.6000, -94.745
1614.8000,-210.000
1615.0000, -83.314
1615.2000, -88.725
1615.4000, -83.515
1615.6000,-210.000
1615.8000, -85.892
1616.0000, -83.852
1616.2000,-210.000
1616.4000, -84.214
1616.6000, -89.266
1616.8000,-210.000
1617.0000, -86.254
1617.2000, -84.354
1617.4000, -85.642
1617.6000, -93.238
1617.8000, -80.961
1618.0000, -88.706
1618.2000, -95.400
1618.4000, -84.615
1618.6000, -87.033
1618.8000,-210.000
1619.0000, -94.019
1619.2000,-210.000
1619.4000,-210.000
1619.6000, -80.947
1619.8000,-210.000
1620.0000, -83.712
1620.2000,-210.000
1620.4000, -86.764
1620.6000,-210.000
1620.8000,-210.000
1621.0000, -89.323
1621.2000,-210.000
1621.4000,-210.000
1621.6000, -83.345
1621.8000,-210.000
1622.0000, -84.366
1622.2000, -85.116
1622.4000, -81.386
1622.6000, -87.178
1622.8000,-210.000
1623.0000,-210.000
1623.2000,-210.000
1623.4000, -88.947
1623.6000, -89.009
1623.8000,-210.000
1624.0000, -86.467
1624.2000,-210.000
1624.4000, -86.875
1624.6000,-210.000
1624.8000,-210.000
1625.0000, -93.059
1625.2000,-210.000
1625.4000, -90.987
1625.6000,-210.000
1625.8000, -86.532
1626.0000,-210.000
1626.2000,-210.000
1626.4000,-210.000
1626.6000, -99.120
1626.8000, -84.016
1627.0000,-210.000
1627.2000,-210.000
1627.4000, -84.533
1627.6000,-210.000
1627.8000, -84.785
1628.0000,-107.615
1628.2000, -93.583
1628.4000,-210.000
1628.6000, -84.697
1628.8000,-210.000
1629.0000, -86.009
1629.2000,-210.000
1629.4000, -84.115
1629.6000, -82.530
1629.8000, -81.585
1630.0000,-210.000
1630.2000,-210.000
1630.4000,-210.000
1630.6000, -84.769
1630.8000,-210.000
1631.0000,-210.000
1631.2000, -85.208
1631.4000, -84.786
1631.6000, -83.614
1631.8000, -85.556
1632.0000, -83.889
1632.2000, -84.826
1632.4000, -86.965
1632.6000,-210.000
1632.8000, -91.387
1633.0000,-210.000
1633.2000,-210.000
1633.4000, -96.919
1633.6000, -86.965
1633.8000, -87.161
1634.0000,-210.000
1634.2000,-210.000
1634.4000, -89.119
1634.6000,-210.000
1634.8000, -85.473
1635.0000, -82.702
1635.2000, -86.640
1635.4000, -86.534
1635.6000,-210.000
1635.8000,-210.000
1636.0000, -85.404
1636.2000, -83.785
1636.4000,-210.000
1636.6000,-210.000
1636.8000,-210.000
1637.0000, -86.088
1637.2000,-210.000
1637.4000,-210.000
1637.6000,-210.000
1637.8000, -88.806
1638.0000,-210.000
1638.2000,-210.000
1638.4000,-210.000
1638.6000, -84.992
1638.8000, -89.596
1639.0000, -85.193
1639.2000, -87.725
1639.4000,-210.000
1639.6000,-210.000
1639.8000, -85.536
1640.0000, -84.668
1640.2000,-210.000
1640.4000,-210.000
1640.6000,-210.000
1640.8000,-210.000
1641.0000,-210.000
1641.2000, -89.944
1641.4000, -90.503
1641.6000, -83.410
1641.8000, -90.104
1642.0000, -85.647
1642.2000,-210.000
1642.4000, -90.501
1642.6000,-101.232
1642.8000,-210.000
1643.0000, -81.309
1643.2000, -84.149
1643.4000, -96.896
1643.6000,-210.000
1643.8000, -84.367
1644.0000,-102.287
1644.2000,-210.000
1644.4000, -91.415
1644.6000,-210.000
1644.8000, -88.354
1645.0000,-210.000
1645.2000,-210.000
1645.4000, -81.429
1645.6000, -84.906
1645.8000, -86.626
1646.0000, -85.437
1646.2000,-210.000
1646.4000,-210.000
1646.6000, -84.099
1646.8000, -84.609
1647.0000, -84.486
1647.2000, -86.674
1647.4000,-210.000
1647.6000,-210.000
1647.8000, -92.259
1648.0000, -91.364
1648.2000, -88.399
1648.4000, -90.076
1648.6000,-210.000
1648.8000, -84.527
1649.0000, -84.680
1649.2000, -84.609
1649.4000, -82.760
1649.6000, -84.095
1649.8000,-210.000
1650.0000,-210.000
1650.2000,-210.000
1650.4000,-210.000
1650.6000,-210.000
1650.8000, -93.172
1651.0000,-210.000
1651.2000,-210.000
1651.4000,-210.000
1651.6000, -94.093
1651.8000,-210.000
1652.0000,-210.000
1652.2000,-210.000
1652.4000, -84.020
1652.6000, -91.543
1652.8000, -84.471
1653.0000, -81.096
1653.2000, -92.782
1653.4000,-210.000
1653.6000,-210.000
1653.8000, -83.679
1654.0000, -95.326
1654.2000,-210.000
1654.4000,-210.000
1654.6000,-100.790
1654.8000,-210.000
1655.0000, -84.098
1655.2000,-210.000
1655.4000, -95.542
1655.6000, -85.871
1655.8000, -84.567
1656.0000,-210.000
1656.2000,-210.000
1656.4000,-210.000
1656.6000,-210.000
1656.8000, -89.314
1657.0000, -95.977
1657.2000, -89.478
1657.4000,-210.000
1657.6000,-105.594
1657.8000, -97.354
1658.0000,-210.000
1658.2000,-210.000
1658.4000,-210.000
1658.6000, -82.593
1658.8000,-210.000
1659.0000,-210.000
1659.2000,-210.000
1659.4000,-210.000
1659.6000,-210.000
1659.8000, -86.156
1660.0000, -91.213
1660.2000, -83.354
1660.4000, -91.121
1660.6000,-210.000
1660.8000, -90.590
1661.0000, -84.627
1661.2000,-210.000
1661.4000, -84.795
1661.6000,-210.000
1661.8000,-210.000
1662.0000, -95.742
1662.2000, -86.152
1662.4000, -83.014
1662.6000,-210.000
1662.8000,-210.000
1663.0000,-210.000
1663.2000, -80.623
1663.4000, -84.503
1663.6000,-210.000
1663.8000, -99.716
1664.0000, -96.430
1664.2000,-210.000
1664.4000,-210.000
1664.6000, -82.737
1664.8000,-210.000
1665.0000,-210.000
1665.2000,-210.000
1665.4000,-210.000
1665.6000,-210.000
1665.8000, -78.516
1666.0000, -95.559
1666.2000, -85.705
1666.4000, -81.607
1666.6000, -91.544
1666.8000,-210.000
1667.0000, -82.399
1667.2000,-210.000
1667.4000,-210.000
1667.6000,-210.000
1667.8000,-210.000
1668.0000, -83.006
1668.2000,-210.000
1668.4000,-210.000
1668.6000,-210.000
1668.8000,-210.000
1669.0000,-210.000
1669.2000,-210.000
1669.4000, -98.593
1669.6000, -82.848
1669.8000,-210.000
1670.0000,-210.000
1670.2000, -89.088
1670.4000, -84.190
1670.6000,-210.000
1670.8000,-210.000
1671.0000,-210.000
1671.2000,-210.000
1671.4000, -89.066
1671.6000, -78.909
1671.8000, -81.735
1672.0000, -87.836
1672.2000,-210.000
1672.4000,-210.000
1672.6000,-210.000
1672.8000, -79.988
1673.0000, -94.146
1673.2000,-210.000
1673.4000,-210.000
1673.6000,-210.000
1673.8000,-210.000
1674.0000, -82.943
1674.2000,-210.000
1674.4000,-210.000
1674.6000,-210.000
1674.8000,-210.000
1675.0000,-210.000
1675.2000,-210.000
1675.4000, -81.929
1675.6000, -83.407
1675.8000, -80.039
1676.0000,-210.000
1676.2000, -81.020
1676.4000, -87.632
1676.6000, -84.531
1676.8000,-210.000
1677.0000,-210.000
1677.2000,-210.000
1677.4000, -77.111
1677.6000,-210.000
1677.8000, -82.410
1678.0000,-210.000
1678.2000, -82.648
1678.4000,-210.000
1678.6000, -80.777
1678.8000,-210.000
1679.0000,-210.000
1679.2000,-210.000
1679.4000, -79.156
1679.6000, -79.757
1679.8000, -82.826
1680.0000, -76.301
1680.2000, -83.953
1680.4000,-210.000
1680.6000,-210.000
1680.8000,-210.000
1681.0000, -84.332
1681.2000, -83.044
1681.4000, -81.071
1681.6000,-210.000
1681.8000, -82.368
1682.0000, -76.644
1682.2000, -82.826
1682.4000,-210.000
1682.6000,-210.000
1682.8000, -76.149
1683.0000, -80.872
1683.2000,-210.000
1683.4000,-210.000
1683.6000,-210.000
1683.8000, -77.385
1684.0000,-210.000
1684.2000, -86.515
1684.4000,-210.000
1684.6000,-210.000
1684.8000,-210.000
1685.0000, -87.689
1685.2000,-210.000
1685.4000,-210.000
1685.6000,-210.000
1685.8000,-210.000
1686.0000,-210.000
1686.2000,-210.000
1686.4000,-210.000
1686.6000,-210.000
1686.8000, -77.389
1687.0000,-210.000
1687.2000,-210.000
1687.4000,-210.000
1687.6000, -85.927
1687.8000,-210.000
1688.0000,-210.000
1688.2000,-210.000
1688.4000, -76.819
1688.6000, -77.152
1688.8000,-210.000
1689.0000, -84.100
1689.2000, -74.519
1689.4000,-210.000
1689.6000,-210.000
1689.8000,-210.000
1690.0000,-210.000
1690.2000, -76.868
1690.4000,-210.000
1690.6000, -83.335
1690.8000, -85.343
1691.0000,-210.000
1691.2000,-210.000
1691.4000, -79.314
1691.6000,-210.000
1691.8000, -75.426
1692.0000, -76.867
1692.2000, -76.533
1692.4000,-210.000
1692.6000,-210.000
1692.8000,-210.000
1693.0000, -78.837
1693.2000,-210.000
1693.4000,-210.000
1693.6000,-210.000
1693.8000, -78.984
1694.0000, -78.177
1694.2000, -75.066
1694.4000,-210.000
1694.6000, -82.285
1694.8000,-210.000
1695.0000,-210.000
1695.2000,-210.000
1695.4000, -78.081
1695.6000, -78.956
1695.8000,-210.000
1696.0000, -75.263
1696.2000, -81.883
1696.4000, -77.563
1696.6000, -78.017
1696.8000,-210.000
1697.0000, -71.872
1697.2000,-210.000
1697.4000, -83.594
1697.6000,-210.000
1697.8000, -95.982
1698.0000,-210.000
1698.2000, -77.337
1698.4000,-210.000
1698.6000,-210.000
1698.8000, -75.357
1699.0000,-210.000
1699.2000,-210.000
1699.4000,-210.000
1699.6000, -78.968
1699.8000, -75.385
1700.0000,-210.000
