74CSV  	
// AQ6374 OPTICAL SPECTRUM ANALYZER //                  
35
"CTRWL",1125.000000
"SPAN",1150.000000
"START WL", 550.000000
"STOP WL",1700.000000
"WLFREQ", 0
"REFL",-56.6
"LSCL", 5.0
"RESLN",1.000
"AVG",   1
"SMPLAUTO",      1
"SMPL",       5751
"SMPLINTVL",0.2000
"HIGH1"
"MEAS"
"LSUNT",0
"NMSKH","OFF"
"RESCOR",0
"SMOOTH",0
"MEASWL",1
"SWPSPD",0
"MODELNAME","AQ6374"
"CHGPT",        102
"RESCAL0_0",       9996
"RESCAL0_1",       -866
"RESCAL0_2",    1341521
"RESCAL1_0",      10053
"RESCAL1_1",          0
"RESCAL1_2",          0
"CORESIZE", 0






"[TRACE DATA]"
 550.0000, -68.137
 550.2000, -67.983
 550.4000, -68.849
 550.6000, -69.674
 550.8000, -74.442
 551.0000, -69.928
 551.2000, -72.391
 551.4000,-210.000
 551.6000, -73.492
 551.8000,-210.000
 552.0000,-210.000
 552.2000, -64.723
 552.4000,-210.000
 552.6000, -70.319
 552.8000,-210.000
 553.0000, -72.985
 553.2000, -69.815
 553.4000, -68.684
 553.6000, -68.744
 553.8000,-210.000
 554.0000,-210.000
 554.2000,-210.000
 554.4000, -89.481
 554.6000, -74.667
 554.8000, -76.571
 555.0000, -69.185
 555.2000, -72.799
 555.4000, -68.070
 555.6000, -71.827
 555.8000, -68.796
 556.0000, -69.706
 556.2000, -79.686
 556.4000, -82.556
 556.6000, -68.533
 556.8000, -73.052
 557.0000,-210.000
 557.2000, -67.210
 557.4000, -69.433
 557.6000,-210.000
 557.8000,-210.000
 558.0000, -69.748
 558.2000, -69.791
 558.4000, -69.354
 558.6000, -69.565
 558.8000, -75.909
 559.0000,-210.000
 559.2000, -71.420
 559.4000, -67.494
 559.6000,-210.000
 559.8000, -69.116
 560.0000, -70.906
 560.2000, -69.249
 560.4000, -67.709
 560.6000, -68.705
 560.8000, -72.229
 561.0000, -73.988
 561.2000,-210.000
 561.4000, -67.883
 561.6000, -69.697
 561.8000, -70.993
 562.0000, -81.044
 562.2000, -72.556
 562.4000, -71.686
 562.6000, -68.709
 562.8000, -71.525
 563.0000, -72.947
 563.2000, -68.942
 563.4000,-210.000
 563.6000, -68.730
 563.8000,-210.000
 564.0000, -67.318
 564.2000, -67.028
 564.4000, -69.712
 564.6000, -72.188
 564.8000, -71.243
 565.0000,-210.000
 565.2000, -68.391
 565.4000, -67.099
 565.6000, -72.821
 565.8000, -69.526
 566.0000, -68.838
 566.2000, -68.246
 566.4000, -69.286
 566.6000, -66.051
 566.8000, -70.107
 567.0000, -70.403
 567.2000, -75.211
 567.4000, -69.748
 567.6000, -67.309
 567.8000,-210.000
 568.0000, -68.693
 568.2000,-210.000
 568.4000, -67.293
 568.6000, -73.893
 568.8000, -71.601
 569.0000, -74.102
 569.2000, -75.954
 569.4000, -69.132
 569.6000, -71.258
 569.8000,-210.000
 570.0000, -68.867
 570.2000, -67.875
 570.4000, -81.846
 570.6000, -68.124
 570.8000, -67.964
 571.0000, -69.052
 571.2000, -74.499
 571.4000, -72.963
 571.6000, -72.124
 571.8000, -69.054
 572.0000, -66.385
 572.2000, -69.382
 572.4000, -69.567
 572.6000, -67.765
 572.8000, -69.641
 573.0000, -70.326
 573.2000, -66.719
 573.4000, -65.630
 573.6000, -67.503
 573.8000, -67.342
 574.0000, -67.412
 574.2000, -69.497
 574.4000, -67.499
 574.6000, -66.478
 574.8000, -67.506
 575.0000, -67.760
 575.2000, -67.737
 575.4000, -70.389
 575.6000, -67.375
 575.8000, -66.790
 576.0000, -66.835
 576.2000, -66.683
 576.4000, -67.205
 576.6000, -66.937
 576.8000, -68.101
 577.0000, -67.865
 577.2000, -67.314
 577.4000, -66.918
 577.6000, -67.190
 577.8000, -67.048
 578.0000, -65.459
 578.2000, -66.189
 578.4000, -69.064
 578.6000, -68.446
 578.8000, -67.118
 579.0000, -65.984
 579.2000, -65.510
 579.4000, -65.467
 579.6000, -66.370
 579.8000, -65.964
 580.0000, -66.279
 580.2000, -65.531
 580.4000, -65.886
 580.6000, -65.794
 580.8000, -65.190
 581.0000, -65.841
 581.2000, -66.088
 581.4000, -65.180
 581.6000, -64.410
 581.8000, -65.266
 582.0000, -64.718
 582.2000, -64.625
 582.4000, -65.363
 582.6000, -65.486
 582.8000, -65.572
 583.0000, -65.927
 583.2000, -64.501
 583.4000, -65.701
 583.6000, -65.244
 583.8000, -65.502
 584.0000, -65.515
 584.2000, -64.249
 584.4000, -64.978
 584.6000, -65.384
 584.8000, -64.573
 585.0000, -64.808
 585.2000, -64.356
 585.4000, -65.170
 585.6000, -64.598
 585.8000, -64.033
 586.0000, -64.736
 586.2000, -64.928
 586.4000, -64.607
 586.6000, -64.546
 586.8000, -64.758
 587.0000, -65.109
 587.2000, -63.800
 587.4000, -63.808
 587.6000, -64.745
 587.8000, -64.356
 588.0000, -63.488
 588.2000, -63.704
 588.4000, -64.153
 588.6000, -64.106
 588.8000, -63.551
 589.0000, -63.180
 589.2000, -63.181
 589.4000, -62.671
 589.6000, -63.404
 589.8000, -63.656
 590.0000, -63.552
 590.2000, -63.197
 590.4000, -62.926
 590.6000, -62.843
 590.8000, -62.895
 591.0000, -62.983
 591.2000, -62.700
 591.4000, -63.141
 591.6000, -63.547
 591.8000, -62.598
 592.0000, -62.821
 592.2000, -62.545
 592.4000, -62.588
 592.6000, -62.326
 592.8000, -62.039
 593.0000, -62.117
 593.2000, -62.141
 593.4000, -62.288
 593.6000, -62.377
 593.8000, -62.410
 594.0000, -62.036
 594.2000, -62.255
 594.4000, -62.036
 594.6000, -62.516
 594.8000, -62.301
 595.0000, -62.088
 595.2000, -61.547
 595.4000, -61.567
 595.6000, -61.611
 595.8000, -61.687
 596.0000, -61.425
 596.2000, -61.378
 596.4000, -61.607
 596.6000, -61.486
 596.8000, -61.575
 597.0000, -61.031
 597.2000, -61.349
 597.4000, -61.266
 597.6000, -61.069
 597.8000, -61.684
 598.0000, -61.010
 598.2000, -60.536
 598.4000, -60.830
 598.6000, -60.935
 598.8000, -61.075
 599.0000, -60.975
 599.2000, -60.762
 599.4000, -60.803
 599.6000, -60.829
 599.8000, -60.678
 600.0000, -60.949
 600.2000, -60.706
 600.4000, -60.575
 600.6000, -60.735
 600.8000, -60.332
 601.0000, -60.313
 601.2000, -60.121
 601.4000, -60.146
 601.6000, -60.499
 601.8000, -59.885
 602.0000, -60.279
 602.2000, -60.081
 602.4000, -60.132
 602.6000, -59.809
 602.8000, -60.099
 603.0000, -60.158
 603.2000, -59.914
 603.4000, -59.938
 603.6000, -59.780
 603.8000, -59.574
 604.0000, -59.647
 604.2000, -59.375
 604.4000, -59.502
 604.6000, -59.607
 604.8000, -59.351
 605.0000, -59.292
 605.2000, -59.337
 605.4000, -59.566
 605.6000, -59.102
 605.8000, -59.536
 606.0000, -59.065
 606.2000, -59.113
 606.4000, -58.748
 606.6000, -59.045
 606.8000, -58.579
 607.0000, -58.780
 607.2000, -58.695
 607.4000, -58.730
 607.6000, -58.531
 607.8000, -58.397
 608.0000, -58.618
 608.2000, -58.503
 608.4000, -58.545
 608.6000, -58.343
 608.8000, -58.412
 609.0000, -58.351
 609.2000, -58.309
 609.4000, -58.195
 609.6000, -58.129
 609.8000, -58.138
 610.0000, -57.947
 610.2000, -58.127
 610.4000, -58.051
 610.6000, -57.773
 610.8000, -57.862
 611.0000, -57.668
 611.2000, -57.718
 611.4000, -57.758
 611.6000, -57.778
 611.8000, -57.314
 612.0000, -57.803
 612.2000, -57.342
 612.4000, -57.405
 612.6000, -57.242
 612.8000, -57.280
 613.0000, -57.116
 613.2000, -57.110
 613.4000, -57.047
 613.6000, -57.037
 613.8000, -56.925
 614.0000, -57.136
 614.2000, -56.829
 614.4000, -56.873
 614.6000, -56.939
 614.8000, -56.841
 615.0000, -56.826
 615.2000, -56.697
 615.4000, -56.819
 615.6000, -56.520
 615.8000, -56.705
 616.0000, -56.366
 616.2000, -56.538
 616.4000, -56.421
 616.6000, -56.423
 616.8000, -56.226
 617.0000, -56.109
 617.2000, -55.957
 617.4000, -56.013
 617.6000, -56.049
 617.8000, -56.018
 618.0000, -55.870
 618.2000, -55.823
 618.4000, -55.842
 618.6000, -55.682
 618.8000, -55.658
 619.0000, -55.631
 619.2000, -55.640
 619.4000, -55.669
 619.6000, -55.629
 619.8000, -55.460
 620.0000, -55.346
 620.2000, -55.282
 620.4000, -55.308
 620.6000, -55.243
 620.8000, -55.146
 621.0000, -55.090
 621.2000, -55.068
 621.4000, -55.174
 621.6000, -55.085
 621.8000, -54.953
 622.0000, -55.066
 622.2000, -54.715
 622.4000, -54.854
 622.6000, -54.662
 622.8000, -54.769
 623.0000, -54.643
 623.2000, -54.696
 623.4000, -54.645
 623.6000, -54.674
 623.8000, -54.510
 624.0000, -54.510
 624.2000, -54.389
 624.4000, -54.427
 624.6000, -54.316
 624.8000, -54.226
 625.0000, -54.143
 625.2000, -54.052
 625.4000, -54.219
 625.6000, -53.942
 625.8000, -53.977
 626.0000, -53.924
 626.2000, -53.928
 626.4000, -53.764
 626.6000, -53.840
 626.8000, -53.830
 627.0000, -53.838
 627.2000, -53.764
 627.4000, -53.618
 627.6000, -53.752
 627.8000, -53.528
 628.0000, -53.557
 628.2000, -53.480
 628.4000, -53.395
 628.6000, -53.214
 628.8000, -53.177
 629.0000, -53.241
 629.2000, -53.224
 629.4000, -53.154
 629.6000, -53.148
 629.8000, -53.000
 630.0000, -53.072
 630.2000, -53.026
 630.4000, -52.844
 630.6000, -52.912
 630.8000, -52.819
 631.0000, -52.774
 631.2000, -52.743
 631.4000, -52.763
 631.6000, -52.593
 631.8000, -52.599
 632.0000, -52.596
 632.2000, -52.660
 632.4000, -52.533
 632.6000, -52.528
 632.8000, -52.546
 633.0000, -52.448
 633.2000, -52.373
 633.4000, -52.301
 633.6000, -52.289
 633.8000, -52.236
 634.0000, -52.333
 634.2000, -52.206
 634.4000, -52.282
 634.6000, -52.006
 634.8000, -51.979
 635.0000, -52.005
 635.2000, -51.876
 635.4000, -51.924
 635.6000, -51.894
 635.8000, -51.908
 636.0000, -51.770
 636.2000, -51.719
 636.4000, -51.773
 636.6000, -51.745
 636.8000, -51.712
 637.0000, -51.691
 637.2000, -51.710
 637.4000, -51.544
 637.6000, -51.550
 637.8000, -51.478
 638.0000, -51.500
 638.2000, -51.461
 638.4000, -51.530
 638.6000, -51.454
 638.8000, -51.385
 639.0000, -51.237
 639.2000, -51.143
 639.4000, -51.188
 639.6000, -51.165
 639.8000, -51.194
 640.0000, -51.182
 640.2000, -51.180
 640.4000, -51.100
 640.6000, -51.038
 640.8000, -51.052
 641.0000, -51.052
 641.2000, -50.976
 641.4000, -50.893
 641.6000, -50.836
 641.8000, -50.841
 642.0000, -50.851
 642.2000, -50.915
 642.4000, -50.918
 642.6000, -50.752
 642.8000, -50.815
 643.0000, -50.801
 643.2000, -50.617
 643.4000, -50.730
 643.6000, -50.490
 643.8000, -50.592
 644.0000, -50.533
 644.2000, -50.485
 644.4000, -50.632
 644.6000, -50.440
 644.8000, -50.416
 645.0000, -50.403
 645.2000, -50.444
 645.4000, -50.379
 645.6000, -50.370
 645.8000, -50.263
 646.0000, -50.330
 646.2000, -50.341
 646.4000, -50.334
 646.6000, -50.308
 646.8000, -50.198
 647.0000, -50.220
 647.2000, -50.372
 647.4000, -50.228
 647.6000, -50.345
 647.8000, -50.136
 648.0000, -50.114
 648.2000, -50.077
 648.4000, -49.986
 648.6000, -49.865
 648.8000, -49.940
 649.0000, -49.934
 649.2000, -49.885
 649.4000, -49.911
 649.6000, -49.860
 649.8000, -49.878
 650.0000, -49.807
 650.2000, -49.754
 650.4000, -49.824
 650.6000, -49.809
 650.8000, -49.869
 651.0000, -49.721
 651.2000, -49.738
 651.4000, -49.748
 651.6000, -49.742
 651.8000, -49.853
 652.0000, -49.651
 652.2000, -49.598
 652.4000, -49.689
 652.6000, -49.652
 652.8000, -49.620
 653.0000, -49.553
 653.2000, -49.496
 653.4000, -49.548
 653.6000, -49.574
 653.8000, -49.539
 654.0000, -49.489
 654.2000, -49.459
 654.4000, -49.563
 654.6000, -49.427
 654.8000, -49.296
 655.0000, -49.405
 655.2000, -49.309
 655.4000, -49.218
 655.6000, -49.220
 655.8000, -49.251
 656.0000, -49.369
 656.2000, -49.254
 656.4000, -49.287
 656.6000, -49.230
 656.8000, -49.260
 657.0000, -49.339
 657.2000, -49.134
 657.4000, -49.238
 657.6000, -49.192
 657.8000, -49.194
 658.0000, -49.192
 658.2000, -49.143
 658.4000, -49.032
 658.6000, -49.140
 658.8000, -48.990
 659.0000, -49.003
 659.2000, -49.023
 659.4000, -49.044
 659.6000, -49.024
 659.8000, -49.102
 660.0000, -48.988
 660.2000, -48.924
 660.4000, -49.079
 660.6000, -49.045
 660.8000, -48.927
 661.0000, -48.914
 661.2000, -48.958
 661.4000, -48.871
 661.6000, -48.949
 661.8000, -48.823
 662.0000, -48.839
 662.2000, -48.924
 662.4000, -48.867
 662.6000, -48.871
 662.8000, -48.869
 663.0000, -48.759
 663.2000, -48.699
 663.4000, -48.775
 663.6000, -48.614
 663.8000, -48.742
 664.0000, -48.719
 664.2000, -48.741
 664.4000, -48.701
 664.6000, -48.592
 664.8000, -48.727
 665.0000, -48.676
 665.2000, -48.660
 665.4000, -48.706
 665.6000, -48.730
 665.8000, -48.627
 666.0000, -48.648
 666.2000, -48.682
 666.4000, -48.711
 666.6000, -48.620
 666.8000, -48.547
 667.0000, -48.568
 667.2000, -48.544
 667.4000, -48.569
 667.6000, -48.554
 667.8000, -48.709
 668.0000, -48.507
 668.2000, -48.689
 668.4000, -48.646
 668.6000, -48.547
 668.8000, -48.514
 669.0000, -48.559
 669.2000, -48.601
 669.4000, -48.477
 669.6000, -48.470
 669.8000, -48.420
 670.0000, -48.480
 670.2000, -48.420
 670.4000, -48.473
 670.6000, -48.378
 670.8000, -48.440
 671.0000, -48.433
 671.2000, -48.395
 671.4000, -48.444
 671.6000, -48.297
 671.8000, -48.212
 672.0000, -48.288
 672.2000, -48.422
 672.4000, -48.343
 672.6000, -48.409
 672.8000, -48.370
 673.0000, -48.476
 673.2000, -48.371
 673.4000, -48.425
 673.6000, -48.227
 673.8000, -48.231
 674.0000, -48.403
 674.2000, -48.273
 674.4000, -48.306
 674.6000, -48.229
 674.8000, -48.333
 675.0000, -48.229
 675.2000, -48.286
 675.4000, -48.221
 675.6000, -48.276
 675.8000, -48.181
 676.0000, -48.291
 676.2000, -48.201
 676.4000, -48.340
 676.6000, -48.133
 676.8000, -48.222
 677.0000, -48.312
 677.2000, -48.225
 677.4000, -48.176
 677.6000, -48.145
 677.8000, -48.084
 678.0000, -48.021
 678.2000, -48.227
 678.4000, -48.222
 678.6000, -48.202
 678.8000, -48.076
 679.0000, -48.148
 679.2000, -48.172
 679.4000, -48.181
 679.6000, -48.226
 679.8000, -48.186
 680.0000, -48.208
 680.2000, -48.367
 680.4000, -48.219
 680.6000, -48.240
 680.8000, -48.177
 681.0000, -48.214
 681.2000, -48.201
 681.4000, -48.125
 681.6000, -48.193
 681.8000, -48.084
 682.0000, -48.201
 682.2000, -48.127
 682.4000, -48.170
 682.6000, -48.118
 682.8000, -48.066
 683.0000, -48.229
 683.2000, -48.026
 683.4000, -48.164
 683.6000, -48.154
 683.8000, -48.059
 684.0000, -48.152
 684.2000, -48.035
 684.4000, -48.087
 684.6000, -48.039
 684.8000, -48.084
 685.0000, -48.083
 685.2000, -48.116
 685.4000, -48.083
 685.6000, -48.007
 685.8000, -48.114
 686.0000, -48.122
 686.2000, -48.091
 686.4000, -48.201
 686.6000, -48.079
 686.8000, -48.072
 687.0000, -48.204
 687.2000, -48.083
 687.4000, -48.147
 687.6000, -48.091
 687.8000, -48.257
 688.0000, -48.077
 688.2000, -47.979
 688.4000, -48.166
 688.6000, -48.177
 688.8000, -48.094
 689.0000, -47.983
 689.2000, -48.083
 689.4000, -47.997
 689.6000, -48.262
 689.8000, -48.014
 690.0000, -48.064
 690.2000, -48.095
 690.4000, -48.074
 690.6000, -48.111
 690.8000, -48.146
 691.0000, -48.054
 691.2000, -48.114
 691.4000, -48.198
 691.6000, -48.147
 691.8000, -48.111
 692.0000, -48.127
 692.2000, -48.109
 692.4000, -48.116
 692.6000, -48.290
 692.8000, -48.112
 693.0000, -47.972
 693.2000, -48.079
 693.4000, -48.103
 693.6000, -48.182
 693.8000, -48.115
 694.0000, -48.242
 694.2000, -48.153
 694.4000, -48.320
 694.6000, -48.141
 694.8000, -48.109
 695.0000, -48.158
 695.2000, -48.168
 695.4000, -48.099
 695.6000, -48.179
 695.8000, -48.276
 696.0000, -48.177
 696.2000, -48.227
 696.4000, -48.086
 696.6000, -48.304
 696.8000, -48.085
 697.0000, -48.127
 697.2000, -48.189
 697.4000, -48.195
 697.6000, -48.114
 697.8000, -48.213
 698.0000, -48.241
 698.2000, -48.120
 698.4000, -48.236
 698.6000, -48.150
 698.8000, -48.249
 699.0000, -48.293
 699.2000, -48.270
 699.4000, -48.154
 699.6000, -48.193
 699.8000, -48.270
 700.0000, -48.237
 700.2000, -48.237
 700.4000, -48.287
 700.6000, -48.242
 700.8000, -48.310
 701.0000, -48.315
 701.2000, -48.265
 701.4000, -48.302
 701.6000, -48.387
 701.8000, -48.282
 702.0000, -48.315
 702.2000, -48.210
 702.4000, -48.374
 702.6000, -48.294
 702.8000, -48.379
 703.0000, -48.269
 703.2000, -48.398
 703.4000, -48.399
 703.6000, -48.345
 703.8000, -48.481
 704.0000, -48.465
 704.2000, -48.418
 704.4000, -48.441
 704.6000, -48.428
 704.8000, -48.300
 705.0000, -48.425
 705.2000, -48.365
 705.4000, -48.480
 705.6000, -48.481
 705.8000, -48.471
 706.0000, -48.429
 706.2000, -48.492
 706.4000, -48.425
 706.6000, -48.496
 706.8000, -48.572
 707.0000, -48.514
 707.2000, -48.562
 707.4000, -48.433
 707.6000, -48.548
 707.8000, -48.472
 708.0000, -48.595
 708.2000, -48.663
 708.4000, -48.587
 708.6000, -48.604
 708.8000, -48.589
 709.0000, -48.725
 709.2000, -48.728
 709.4000, -48.616
 709.6000, -48.734
 709.8000, -48.652
 710.0000, -48.626
 710.2000, -48.761
 710.4000, -48.709
 710.6000, -48.727
 710.8000, -48.659
 711.0000, -48.698
 711.2000, -48.686
 711.4000, -48.675
 711.6000, -48.707
 711.8000, -48.619
 712.0000, -48.740
 712.2000, -48.759
 712.4000, -48.763
 712.6000, -48.714
 712.8000, -48.811
 713.0000, -48.704
 713.2000, -48.900
 713.4000, -48.754
 713.6000, -48.802
 713.8000, -48.879
 714.0000, -48.934
 714.2000, -48.938
 714.4000, -48.876
 714.6000, -48.873
 714.8000, -48.833
 715.0000, -49.054
 715.2000, -48.870
 715.4000, -48.871
 715.6000, -48.869
 715.8000, -48.983
 716.0000, -48.946
 716.2000, -49.046
 716.4000, -49.008
 716.6000, -48.977
 716.8000, -49.106
 717.0000, -49.055
 717.2000, -49.133
 717.4000, -49.049
 717.6000, -49.065
 717.8000, -49.005
 718.0000, -49.090
 718.2000, -49.219
 718.4000, -49.083
 718.6000, -49.172
 718.8000, -49.044
 719.0000, -49.062
 719.2000, -49.175
 719.4000, -49.143
 719.6000, -49.130
 719.8000, -49.294
 720.0000, -49.231
 720.2000, -49.207
 720.4000, -49.210
 720.6000, -49.104
 720.8000, -49.222
 721.0000, -49.218
 721.2000, -49.327
 721.4000, -49.300
 721.6000, -49.294
 721.8000, -49.335
 722.0000, -49.324
 722.2000, -49.350
 722.4000, -49.397
 722.6000, -49.348
 722.8000, -49.460
 723.0000, -49.356
 723.2000, -49.330
 723.4000, -49.470
 723.6000, -49.300
 723.8000, -49.500
 724.0000, -49.384
 724.2000, -49.514
 724.4000, -49.413
 724.6000, -49.419
 724.8000, -49.451
 725.0000, -49.530
 725.2000, -49.516
 725.4000, -49.500
 725.6000, -49.553
 725.8000, -49.546
 726.0000, -49.586
 726.2000, -49.616
 726.4000, -49.690
 726.6000, -49.501
 726.8000, -49.513
 727.0000, -49.657
 727.2000, -49.602
 727.4000, -49.564
 727.6000, -49.485
 727.8000, -49.634
 728.0000, -49.607
 728.2000, -49.629
 728.4000, -49.702
 728.6000, -49.764
 728.8000, -49.736
 729.0000, -49.671
 729.2000, -49.616
 729.4000, -49.634
 729.6000, -49.768
 729.8000, -49.631
 730.0000, -49.751
 730.2000, -49.700
 730.4000, -49.796
 730.6000, -49.844
 730.8000, -49.811
 731.0000, -49.872
 731.2000, -49.791
 731.4000, -49.895
 731.6000, -49.833
 731.8000, -49.857
 732.0000, -49.901
 732.2000, -49.919
 732.4000, -49.964
 732.6000, -49.907
 732.8000, -49.880
 733.0000, -49.874
 733.2000, -50.007
 733.4000, -49.855
 733.6000, -49.924
 733.8000, -49.872
 734.0000, -49.996
 734.2000, -49.948
 734.4000, -49.919
 734.6000, -50.060
 734.8000, -49.984
 735.0000, -50.190
 735.2000, -50.078
 735.4000, -50.067
 735.6000, -49.883
 735.8000, -50.003
 736.0000, -50.195
 736.2000, -50.097
 736.4000, -50.150
 736.6000, -49.988
 736.8000, -50.113
 737.0000, -50.021
 737.2000, -50.061
 737.4000, -50.135
 737.6000, -50.096
 737.8000, -50.250
 738.0000, -50.099
 738.2000, -50.204
 738.4000, -50.220
 738.6000, -50.078
 738.8000, -50.422
 739.0000, -50.132
 739.2000, -50.351
 739.4000, -50.182
 739.6000, -50.379
 739.8000, -50.404
 740.0000, -50.227
 740.2000, -50.422
 740.4000, -50.344
 740.6000, -50.329
 740.8000, -50.338
 741.0000, -50.278
 741.2000, -50.434
 741.4000, -50.418
 741.6000, -50.376
 741.8000, -50.460
 742.0000, -50.272
 742.2000, -50.420
 742.4000, -50.384
 742.6000, -50.269
 742.8000, -50.534
 743.0000, -50.324
 743.2000, -50.414
 743.4000, -50.537
 743.6000, -50.364
 743.8000, -50.534
 744.0000, -50.454
 744.2000, -50.455
 744.4000, -50.597
 744.6000, -50.519
 744.8000, -50.394
 745.0000, -50.729
 745.2000, -50.576
 745.4000, -50.640
 745.6000, -50.643
 745.8000, -50.616
 746.0000, -50.591
 746.2000, -50.661
 746.4000, -50.679
 746.6000, -50.573
 746.8000, -50.649
 747.0000, -50.682
 747.2000, -50.669
 747.4000, -50.605
 747.6000, -50.659
 747.8000, -50.591
 748.0000, -50.659
 748.2000, -50.717
 748.4000, -50.778
 748.6000, -50.739
 748.8000, -50.629
 749.0000, -50.776
 749.2000, -50.731
 749.4000, -50.780
 749.6000, -50.763
 749.8000, -50.757
 750.0000, -50.768
 750.2000, -50.906
 750.4000, -50.852
 750.6000, -50.880
 750.8000, -50.825
 751.0000, -50.889
 751.2000, -50.959
 751.4000, -50.892
 751.6000, -50.695
 751.8000, -50.937
 752.0000, -50.940
 752.2000, -50.873
 752.4000, -50.906
 752.6000, -51.183
 752.8000, -50.944
 753.0000, -50.833
 753.2000, -51.075
 753.4000, -50.942
 753.6000, -50.802
 753.8000, -51.021
 754.0000, -51.147
 754.2000, -50.868
 754.4000, -50.789
 754.6000, -51.140
 754.8000, -51.074
 755.0000, -50.911
 755.2000, -51.237
 755.4000, -51.197
 755.6000, -50.869
 755.8000, -50.914
 756.0000, -51.427
 756.2000, -51.287
 756.4000, -51.009
 756.6000, -51.089
 756.8000, -51.356
 757.0000, -51.097
 757.2000, -50.894
 757.4000, -51.339
 757.6000, -51.349
 757.8000, -50.977
 758.0000, -50.986
 758.2000, -51.492
 758.4000, -51.323
 758.6000, -50.986
 758.8000, -51.159
 759.0000, -51.434
 759.2000, -51.343
 759.4000, -51.034
 759.6000, -51.260
 759.8000, -51.529
 760.0000, -51.426
 760.2000, -51.009
 760.4000, -51.138
 760.6000, -51.476
 760.8000, -51.494
 761.0000, -51.073
 761.2000, -51.225
 761.4000, -51.734
 761.6000, -51.624
 761.8000, -51.177
 762.0000, -51.216
 762.2000, -51.491
 762.4000, -51.586
 762.6000, -51.288
 762.8000, -51.105
 763.0000, -51.639
 763.2000, -51.731
 763.4000, -51.529
 763.6000, -51.192
 763.8000, -51.552
 764.0000, -51.830
 764.2000, -51.698
 764.4000, -51.431
 764.6000, -51.447
 764.8000, -51.675
 765.0000, -51.813
 765.2000, -51.601
 765.4000, -51.370
 765.6000, -51.436
 765.8000, -51.814
 766.0000, -51.819
 766.2000, -51.585
 766.4000, -51.429
 766.6000, -51.572
 766.8000, -51.901
 767.0000, -51.726
 767.2000, -51.501
 767.4000, -51.617
 767.6000, -51.685
 767.8000, -51.766
 768.0000, -51.827
 768.2000, -51.590
 768.4000, -51.627
 768.6000, -51.822
 768.8000, -51.883
 769.0000, -51.912
 769.2000, -51.672
 769.4000, -51.751
 769.6000, -51.803
 769.8000, -51.893
 770.0000, -51.847
 770.2000, -51.803
 770.4000, -51.811
 770.6000, -51.831
 770.8000, -51.790
 771.0000, -51.916
 771.2000, -51.927
 771.4000, -51.903
 771.6000, -51.870
 771.8000, -51.987
 772.0000, -51.958
 772.2000, -52.002
 772.4000, -51.928
 772.6000, -51.931
 772.8000, -51.914
 773.0000, -52.127
 773.2000, -51.939
 773.4000, -52.057
 773.6000, -52.140
 773.8000, -52.105
 774.0000, -51.968
 774.2000, -52.063
 774.4000, -52.017
 774.6000, -51.962
 774.8000, -52.055
 775.0000, -52.170
 775.2000, -52.117
 775.4000, -52.114
 775.6000, -52.189
 775.8000, -52.025
 776.0000, -52.089
 776.2000, -52.218
 776.4000, -52.264
 776.6000, -52.322
 776.8000, -52.222
 777.0000, -52.229
 777.2000, -52.137
 777.4000, -52.112
 777.6000, -52.417
 777.8000, -52.555
 778.0000, -52.366
 778.2000, -52.203
 778.4000, -52.229
 778.6000, -52.268
 778.8000, -52.320
 779.0000, -52.399
 779.2000, -52.587
 779.4000, -52.557
 779.6000, -52.480
 779.8000, -52.224
 780.0000, -52.141
 780.2000, -52.241
 780.4000, -52.379
 780.6000, -52.665
 780.8000, -52.731
 781.0000, -52.620
 781.2000, -52.494
 781.4000, -52.307
 781.6000, -52.172
 781.8000, -52.371
 782.0000, -52.477
 782.2000, -52.672
 782.4000, -52.790
 782.6000, -52.872
 782.8000, -52.655
 783.0000, -52.469
 783.2000, -52.367
 783.4000, -52.275
 783.6000, -52.484
 783.8000, -52.599
 784.0000, -52.935
 784.2000, -53.098
 784.4000, -52.908
 784.6000, -52.727
 784.8000, -52.506
 785.0000, -52.461
 785.2000, -52.528
 785.4000, -52.583
 785.6000, -52.728
 785.8000, -52.919
 786.0000, -53.021
 786.2000, -53.043
 786.4000, -53.009
 786.6000, -52.768
 786.8000, -52.676
 787.0000, -52.696
 787.2000, -52.575
 787.4000, -52.490
 787.6000, -52.665
 787.8000, -52.862
 788.0000, -53.005
 788.2000, -53.331
 788.4000, -53.190
 788.6000, -53.102
 788.8000, -52.970
 789.0000, -52.836
 789.2000, -52.920
 789.4000, -52.788
 789.6000, -52.653
 789.8000, -52.871
 790.0000, -53.076
 790.2000, -53.299
 790.4000, -53.319
 790.6000, -53.350
 790.8000, -53.225
 791.0000, -53.250
 791.2000, -53.201
 791.4000, -53.111
 791.6000, -53.050
 791.8000, -53.071
 792.0000, -53.104
 792.2000, -52.936
 792.4000, -53.091
 792.6000, -53.127
 792.8000, -53.343
 793.0000, -53.327
 793.2000, -53.350
 793.4000, -53.513
 793.6000, -53.447
 793.8000, -53.336
 794.0000, -53.358
 794.2000, -53.372
 794.4000, -53.287
 794.6000, -53.339
 794.8000, -53.431
 795.0000, -53.295
 795.2000, -53.362
 795.4000, -53.326
 795.6000, -53.371
 795.8000, -53.269
 796.0000, -53.376
 796.2000, -53.456
 796.4000, -53.384
 796.6000, -53.528
 796.8000, -53.307
 797.0000, -53.477
 797.2000, -53.520
 797.4000, -53.588
 797.6000, -53.605
 797.8000, -53.443
 798.0000, -53.541
 798.2000, -53.775
 798.4000, -53.657
 798.6000, -53.668
 798.8000, -53.737
 799.0000, -53.827
 799.2000, -53.901
 799.4000, -53.857
 799.6000, -53.877
 799.8000, -53.757
 800.0000, -53.937
 800.2000, -53.847
 800.4000, -53.844
 800.6000, -53.900
 800.8000, -53.746
 801.0000, -53.715
 801.2000, -53.660
 801.4000, -53.640
 801.6000, -53.581
 801.8000, -53.630
 802.0000, -53.566
 802.2000, -53.547
 802.4000, -53.463
 802.6000, -53.589
 802.8000, -53.482
 803.0000, -53.603
 803.2000, -53.626
 803.4000, -53.650
 803.6000, -53.459
 803.8000, -53.673
 804.0000, -53.594
 804.2000, -53.759
 804.4000, -53.720
 804.6000, -53.713
 804.8000, -53.880
 805.0000, -53.962
 805.2000, -54.037
 805.4000, -54.233
 805.6000, -54.061
 805.8000, -54.236
 806.0000, -54.181
 806.2000, -54.347
 806.4000, -54.381
 806.6000, -54.426
 806.8000, -54.442
 807.0000, -54.616
 807.2000, -54.663
 807.4000, -54.611
 807.6000, -54.589
 807.8000, -54.612
 808.0000, -54.578
 808.2000, -54.602
 808.4000, -54.524
 808.6000, -54.659
 808.8000, -54.713
 809.0000, -54.745
 809.2000, -54.895
 809.4000, -54.939
 809.6000, -54.746
 809.8000, -54.825
 810.0000, -54.981
 810.2000, -54.833
 810.4000, -54.936
 810.6000, -54.862
 810.8000, -54.924
 811.0000, -54.762
 811.2000, -54.701
 811.4000, -54.829
 811.6000, -54.620
 811.8000, -54.562
 812.0000, -54.563
 812.2000, -54.586
 812.4000, -54.491
 812.6000, -54.440
 812.8000, -54.249
 813.0000, -54.330
 813.2000, -54.142
 813.4000, -54.201
 813.6000, -53.988
 813.8000, -53.902
 814.0000, -53.707
 814.2000, -53.758
 814.4000, -53.654
 814.6000, -53.544
 814.8000, -53.844
 815.0000, -53.808
 815.2000, -53.731
 815.4000, -53.684
 815.6000, -53.852
 815.8000, -53.918
 816.0000, -53.988
 816.2000, -54.164
 816.4000, -54.302
 816.6000, -54.684
 816.8000, -54.733
 817.0000, -55.066
 817.2000, -55.164
 817.4000, -55.428
 817.6000, -55.740
 817.8000, -55.926
 818.0000, -56.214
 818.2000, -56.312
 818.4000, -56.335
 818.6000, -56.339
 818.8000, -56.294
 819.0000, -56.118
 819.2000, -55.926
 819.4000, -55.583
 819.6000, -55.319
 819.8000, -55.003
 820.0000, -54.609
 820.2000, -54.403
 820.4000, -54.048
 820.6000, -54.098
 820.8000, -53.868
 821.0000, -53.819
 821.2000, -53.963
 821.4000, -54.100
 821.6000, -54.434
 821.8000, -54.557
 822.0000, -55.020
 822.2000, -55.472
 822.4000, -56.071
 822.6000, -56.343
 822.8000, -56.617
 823.0000, -56.779
 823.2000, -56.846
 823.4000, -56.635
 823.6000, -56.559
 823.8000, -55.953
 824.0000, -55.398
 824.2000, -54.977
 824.4000, -54.612
 824.6000, -54.230
 824.8000, -54.232
 825.0000, -54.213
 825.2000, -54.081
 825.4000, -54.314
 825.6000, -54.804
 825.8000, -55.157
 826.0000, -55.936
 826.2000, -56.214
 826.4000, -56.839
 826.6000, -57.085
 826.8000, -57.072
 827.0000, -56.629
 827.2000, -56.112
 827.4000, -55.520
 827.6000, -55.080
 827.8000, -54.628
 828.0000, -54.431
 828.2000, -54.522
 828.4000, -54.368
 828.6000, -54.653
 828.8000, -55.069
 829.0000, -55.595
 829.2000, -56.234
 829.4000, -56.780
 829.6000, -57.227
 829.8000, -57.164
 830.0000, -56.736
 830.2000, -56.256
 830.4000, -55.765
 830.6000, -55.096
 830.8000, -54.631
 831.0000, -54.690
 831.2000, -54.541
 831.4000, -54.931
 831.6000, -55.215
 831.8000, -55.975
 832.0000, -56.592
 832.2000, -57.279
 832.4000, -57.356
 832.6000, -57.082
 832.8000, -56.477
 833.0000, -55.767
 833.2000, -55.375
 833.4000, -54.839
 833.6000, -54.620
 833.8000, -54.785
 834.0000, -55.160
 834.2000, -55.664
 834.4000, -56.466
 834.6000, -57.078
 834.8000, -57.316
 835.0000, -57.265
 835.2000, -56.704
 835.4000, -55.860
 835.6000, -55.379
 835.8000, -54.850
 836.0000, -54.889
 836.2000, -55.003
 836.4000, -55.629
 836.6000, -56.254
 836.8000, -56.992
 837.0000, -57.411
 837.2000, -57.380
 837.4000, -56.773
 837.6000, -56.032
 837.8000, -55.449
 838.0000, -55.053
 838.2000, -54.918
 838.4000, -55.270
 838.6000, -55.969
 838.8000, -56.570
 839.0000, -57.304
 839.2000, -57.545
 839.4000, -57.097
 839.6000, -56.413
 839.8000, -55.727
 840.0000, -55.378
 840.2000, -55.200
 840.4000, -55.385
 840.6000, -55.916
 840.8000, -56.612
 841.0000, -57.151
 841.2000, -57.422
 841.4000, -57.079
 841.6000, -56.529
 841.8000, -55.984
 842.0000, -55.510
 842.2000, -55.284
 842.4000, -55.571
 842.6000, -56.335
 842.8000, -56.744
 843.0000, -57.265
 843.2000, -57.326
 843.4000, -57.194
 843.6000, -56.237
 843.8000, -55.673
 844.0000, -55.592
 844.2000, -55.564
 844.4000, -56.169
 844.6000, -56.847
 844.8000, -57.337
 845.0000, -57.310
 845.2000, -56.920
 845.4000, -56.409
 845.6000, -56.117
 845.8000, -55.778
 846.0000, -55.738
 846.2000, -56.210
 846.4000, -56.976
 846.6000, -57.432
 846.8000, -57.327
 847.0000, -56.964
 847.2000, -56.237
 847.4000, -55.969
 847.6000, -55.841
 847.8000, -56.102
 848.0000, -56.774
 848.2000, -57.133
 848.4000, -57.393
 848.6000, -57.087
 848.8000, -56.707
 849.0000, -56.179
 849.2000, -55.891
 849.4000, -56.136
 849.6000, -56.599
 849.8000, -57.194
 850.0000, -57.442
 850.2000, -57.092
 850.4000, -56.938
 850.6000, -56.287
 850.8000, -56.173
 851.0000, -56.221
 851.2000, -56.795
 851.4000, -57.199
 851.6000, -57.526
 851.8000, -57.341
 852.0000, -56.783
 852.2000, -56.394
 852.4000, -56.202
 852.6000, -56.385
 852.8000, -56.813
 853.0000, -57.093
 853.2000, -57.435
 853.4000, -57.105
 853.6000, -56.837
 853.8000, -56.559
 854.0000, -56.345
 854.2000, -56.760
 854.4000, -57.116
 854.6000, -57.387
 854.8000, -57.473
 855.0000, -57.181
 855.2000, -56.684
 855.4000, -56.351
 855.6000, -56.596
 855.8000, -57.028
 856.0000, -57.373
 856.2000, -57.356
 856.4000, -57.338
 856.6000, -56.955
 856.8000, -56.680
 857.0000, -56.738
 857.2000, -57.029
 857.4000, -57.336
 857.6000, -57.479
 857.8000, -57.378
 858.0000, -57.083
 858.2000, -56.793
 858.4000, -56.764
 858.6000, -56.971
 858.8000, -57.215
 859.0000, -57.355
 859.2000, -57.362
 859.4000, -57.081
 859.6000, -56.928
 859.8000, -56.927
 860.0000, -56.995
 860.2000, -57.203
 860.4000, -57.411
 860.6000, -57.484
 860.8000, -57.117
 861.0000, -56.996
 861.2000, -56.869
 861.4000, -57.202
 861.6000, -57.426
 861.8000, -57.302
 862.0000, -57.440
 862.2000, -57.210
 862.4000, -57.087
 862.6000, -57.147
 862.8000, -57.188
 863.0000, -57.463
 863.2000, -57.452
 863.4000, -57.383
 863.6000, -57.179
 863.8000, -56.973
 864.0000, -57.249
 864.2000, -57.388
 864.4000, -57.640
 864.6000, -57.554
 864.8000, -57.401
 865.0000, -57.129
 865.2000, -57.198
 865.4000, -57.414
 865.6000, -57.585
 865.8000, -57.465
 866.0000, -57.473
 866.2000, -57.344
 866.4000, -57.458
 866.6000, -57.202
 866.8000, -57.449
 867.0000, -57.644
 867.2000, -57.605
 867.4000, -57.558
 867.6000, -57.247
 867.8000, -57.365
 868.0000, -57.545
 868.2000, -57.590
 868.4000, -57.624
 868.6000, -57.469
 868.8000, -57.580
 869.0000, -57.509
 869.2000, -57.674
 869.4000, -57.692
 869.6000, -57.619
 869.8000, -57.611
 870.0000, -57.473
 870.2000, -57.502
 870.4000, -57.590
 870.6000, -57.677
 870.8000, -57.629
 871.0000, -57.656
 871.2000, -57.672
 871.4000, -57.461
 871.6000, -57.533
 871.8000, -57.618
 872.0000, -57.734
 872.2000, -57.811
 872.4000, -57.709
 872.6000, -57.629
 872.8000, -57.710
 873.0000, -57.585
 873.2000, -57.801
 873.4000, -57.630
 873.6000, -57.699
 873.8000, -57.716
 874.0000, -57.811
 874.2000, -57.765
 874.4000, -57.825
 874.6000, -57.760
 874.8000, -57.657
 875.0000, -57.918
 875.2000, -57.746
 875.4000, -57.908
 875.6000, -57.771
 875.8000, -57.932
 876.0000, -57.818
 876.2000, -57.864
 876.4000, -57.734
 876.6000, -57.819
 876.8000, -57.944
 877.0000, -57.788
 877.2000, -57.852
 877.4000, -57.693
 877.6000, -57.731
 877.8000, -57.930
 878.0000, -57.880
 878.2000, -57.955
 878.4000, -58.101
 878.6000, -57.930
 878.8000, -57.933
 879.0000, -57.997
 879.2000, -57.946
 879.4000, -57.933
 879.6000, -57.958
 879.8000, -57.972
 880.0000, -57.890
 880.2000, -57.889
 880.4000, -58.004
 880.6000, -58.003
 880.8000, -57.955
 881.0000, -57.830
 881.2000, -58.024
 881.4000, -57.941
 881.6000, -58.055
 881.8000, -57.927
 882.0000, -57.973
 882.2000, -57.995
 882.4000, -58.055
 882.6000, -57.961
 882.8000, -57.985
 883.0000, -57.979
 883.2000, -57.993
 883.4000, -58.123
 883.6000, -58.143
 883.8000, -58.101
 884.0000, -58.072
 884.2000, -58.138
 884.4000, -57.996
 884.6000, -58.125
 884.8000, -57.927
 885.0000, -58.123
 885.2000, -58.090
 885.4000, -58.185
 885.6000, -58.183
 885.8000, -58.090
 886.0000, -58.058
 886.2000, -58.129
 886.4000, -58.109
 886.6000, -58.254
 886.8000, -58.154
 887.0000, -58.095
 887.2000, -57.992
 887.4000, -58.205
 887.6000, -58.382
 887.8000, -58.136
 888.0000, -58.216
 888.2000, -58.117
 888.4000, -58.273
 888.6000, -58.238
 888.8000, -58.322
 889.0000, -58.218
 889.2000, -58.179
 889.4000, -58.147
 889.6000, -58.197
 889.8000, -58.509
 890.0000, -58.147
 890.2000, -58.330
 890.4000, -58.187
 890.6000, -58.312
 890.8000, -58.365
 891.0000, -58.278
 891.2000, -58.254
 891.4000, -58.356
 891.6000, -58.450
 891.8000, -58.463
 892.0000, -58.351
 892.2000, -58.119
 892.4000, -58.377
 892.6000, -58.310
 892.8000, -58.623
 893.0000, -58.405
 893.2000, -58.428
 893.4000, -58.267
 893.6000, -58.411
 893.8000, -58.463
 894.0000, -58.516
 894.2000, -58.424
 894.4000, -58.230
 894.6000, -58.460
 894.8000, -58.459
 895.0000, -58.500
 895.2000, -58.332
 895.4000, -58.265
 895.6000, -58.632
 895.8000, -58.622
 896.0000, -58.687
 896.2000, -58.455
 896.4000, -58.328
 896.6000, -58.465
 896.8000, -58.722
 897.0000, -58.604
 897.2000, -58.265
 897.4000, -58.428
 897.6000, -58.659
 897.8000, -58.843
 898.0000, -58.640
 898.2000, -58.302
 898.4000, -58.485
 898.6000, -58.617
 898.8000, -58.851
 899.0000, -58.557
 899.2000, -58.442
 899.4000, -58.428
 899.6000, -58.711
 899.8000, -58.888
 900.0000, -58.531
 900.2000, -58.451
 900.4000, -58.498
 900.6000, -58.901
 900.8000, -58.783
 901.0000, -58.538
 901.2000, -58.323
 901.4000, -58.517
 901.6000, -58.995
 901.8000, -58.751
 902.0000, -58.528
 902.2000, -58.392
 902.4000, -58.848
 902.6000, -59.086
 902.8000, -58.935
 903.0000, -58.363
 903.2000, -58.622
 903.4000, -58.845
 903.6000, -59.063
 903.8000, -58.749
 904.0000, -58.457
 904.2000, -58.503
 904.4000, -58.850
 904.6000, -59.268
 904.8000, -58.765
 905.0000, -58.402
 905.2000, -58.655
 905.4000, -58.946
 905.6000, -59.045
 905.8000, -58.875
 906.0000, -58.566
 906.2000, -58.818
 906.4000, -58.962
 906.6000, -59.073
 906.8000, -58.515
 907.0000, -58.405
 907.2000, -58.976
 907.4000, -59.247
 907.6000, -58.877
 907.8000, -58.577
 908.0000, -58.637
 908.2000, -59.099
 908.4000, -59.132
 908.6000, -58.680
 908.8000, -58.658
 909.0000, -58.822
 909.2000, -59.242
 909.4000, -59.162
 909.6000, -58.743
 909.8000, -58.563
 910.0000, -58.975
 910.2000, -59.334
 910.4000, -59.022
 910.6000, -58.470
 910.8000, -58.723
 911.0000, -59.149
 911.2000, -59.198
 911.4000, -58.934
 911.6000, -58.600
 911.8000, -58.776
 912.0000, -59.363
 912.2000, -59.253
 912.4000, -58.804
 912.6000, -58.536
 912.8000, -59.160
 913.0000, -59.565
 913.2000, -59.101
 913.4000, -58.586
 913.6000, -58.716
 913.8000, -59.448
 914.0000, -59.263
 914.2000, -58.698
 914.4000, -58.567
 914.6000, -58.984
 914.8000, -59.341
 915.0000, -59.231
 915.2000, -58.834
 915.4000, -58.886
 915.6000, -59.414
 915.8000, -59.407
 916.0000, -59.035
 916.2000, -58.569
 916.4000, -58.962
 916.6000, -59.661
 916.8000, -59.365
 917.0000, -58.765
 917.2000, -58.666
 917.4000, -59.260
 917.6000, -59.590
 917.8000, -59.133
 918.0000, -58.636
 918.2000, -59.179
 918.4000, -59.635
 918.6000, -59.285
 918.8000, -58.746
 919.0000, -58.772
 919.2000, -59.453
 919.4000, -59.670
 919.6000, -59.247
 919.8000, -58.643
 920.0000, -59.185
 920.2000, -59.573
 920.4000, -59.457
 920.6000, -58.653
 920.8000, -58.825
 921.0000, -59.409
 921.2000, -59.643
 921.4000, -59.009
 921.6000, -58.818
 921.8000, -59.020
 922.0000, -59.748
 922.2000, -59.398
 922.4000, -58.904
 922.6000, -58.722
 922.8000, -59.372
 923.0000, -59.768
 923.2000, -59.167
 923.4000, -58.794
 923.6000, -59.379
 923.8000, -59.828
 924.0000, -59.471
 924.2000, -58.819
 924.4000, -58.836
 924.6000, -59.712
 924.8000, -59.685
 925.0000, -59.058
 925.2000, -58.739
 925.4000, -59.261
 925.6000, -59.844
 925.8000, -59.275
 926.0000, -58.784
 926.2000, -59.128
 926.4000, -59.669
 926.6000, -59.725
 926.8000, -59.042
 927.0000, -59.147
 927.2000, -59.403
 927.4000, -59.957
 927.6000, -59.381
 927.8000, -59.049
 928.0000, -59.334
 928.2000, -59.994
 928.4000, -59.669
 928.6000, -59.040
 928.8000, -59.172
 929.0000, -59.841
 929.2000, -59.935
 929.4000, -59.326
 929.6000, -59.079
 929.8000, -59.583
 930.0000, -59.910
 930.2000, -59.523
 930.4000, -59.050
 930.6000, -59.279
 930.8000, -59.940
 931.0000, -59.975
 931.2000, -59.451
 931.4000, -59.251
 931.6000, -59.800
 931.8000, -60.056
 932.0000, -59.434
 932.2000, -59.141
 932.4000, -59.610
 932.6000, -60.079
 932.8000, -59.666
 933.0000, -59.277
 933.2000, -59.537
 933.4000, -60.058
 933.6000, -60.136
 933.8000, -59.416
 934.0000, -59.425
 934.2000, -60.062
 934.4000, -60.055
 934.6000, -59.729
 934.8000, -59.301
 935.0000, -59.729
 935.2000, -60.077
 935.4000, -59.649
 935.6000, -59.393
 935.8000, -59.668
 936.0000, -60.144
 936.2000, -59.964
 936.4000, -59.591
 936.6000, -59.295
 936.8000, -60.101
 937.0000, -60.032
 937.2000, -59.670
 937.4000, -59.407
 937.6000, -59.903
 937.8000, -60.250
 938.0000, -59.704
 938.2000, -59.399
 938.4000, -59.675
 938.6000, -60.253
 938.8000, -60.019
 939.0000, -59.495
 939.2000, -59.630
 939.4000, -60.314
 939.6000, -60.262
 939.8000, -59.756
 940.0000, -59.753
 940.2000, -60.069
 940.4000, -60.217
 940.6000, -59.837
 940.8000, -59.689
 941.0000, -60.175
 941.2000, -60.473
 941.4000, -60.139
 941.6000, -59.568
 941.8000, -59.972
 942.0000, -60.348
 942.2000, -60.069
 942.4000, -59.816
 942.6000, -59.813
 942.8000, -60.459
 943.0000, -60.444
 943.2000, -59.835
 943.4000, -59.889
 943.6000, -60.198
 943.8000, -60.363
 944.0000, -60.037
 944.2000, -59.926
 944.4000, -60.295
 944.6000, -60.546
 944.8000, -60.094
 945.0000, -59.990
 945.2000, -59.926
 945.4000, -60.491
 945.6000, -60.183
 945.8000, -59.836
 946.0000, -60.042
 946.2000, -60.501
 946.4000, -60.394
 946.6000, -60.177
 946.8000, -59.963
 947.0000, -60.337
 947.2000, -60.351
 947.4000, -60.133
 947.6000, -60.179
 947.8000, -60.357
 948.0000, -60.446
 948.2000, -60.176
 948.4000, -60.160
 948.6000, -60.235
 948.8000, -60.410
 949.0000, -60.363
 949.2000, -60.137
 949.4000, -60.142
 949.6000, -60.427
 949.8000, -60.381
 950.0000, -60.261
 950.2000, -60.443
 950.4000, -60.527
 950.6000, -60.447
 950.8000, -60.319
 951.0000, -60.267
 951.2000, -60.392
 951.4000, -60.577
 951.6000, -60.447
 951.8000, -60.354
 952.0000, -60.562
 952.2000, -60.288
 952.4000, -60.494
 952.6000, -60.410
 952.8000, -60.451
 953.0000, -60.684
 953.2000, -60.443
 953.4000, -60.466
 953.6000, -60.767
 953.8000, -60.419
 954.0000, -60.448
 954.2000, -60.687
 954.4000, -60.586
 954.6000, -60.669
 954.8000, -60.823
 955.0000, -60.728
 955.2000, -60.687
 955.4000, -60.673
 955.6000, -60.764
 955.8000, -60.814
 956.0000, -60.900
 956.2000, -60.937
 956.4000, -60.772
 956.6000, -60.848
 956.8000, -60.970
 957.0000, -60.780
 957.2000, -60.752
 957.4000, -60.621
 957.6000, -60.870
 957.8000, -61.005
 958.0000, -60.579
 958.2000, -60.868
 958.4000, -60.946
 958.6000, -60.991
 958.8000, -60.734
 959.0000, -60.897
 959.2000, -60.836
 959.4000, -61.066
 959.6000, -60.732
 959.8000, -60.825
 960.0000, -60.889
 960.2000, -60.960
 960.4000, -60.749
 960.6000, -60.754
 960.8000, -61.077
 961.0000, -61.069
 961.2000, -60.938
 961.4000, -60.763
 961.6000, -60.902
 961.8000, -61.093
 962.0000, -60.896
 962.2000, -60.604
 962.4000, -60.811
 962.6000, -60.961
 962.8000, -61.183
 963.0000, -60.782
 963.2000, -60.908
 963.4000, -61.181
 963.6000, -60.830
 963.8000, -60.783
 964.0000, -61.068
 964.2000, -61.192
 964.4000, -61.086
 964.6000, -60.778
 964.8000, -60.617
 965.0000, -61.300
 965.2000, -61.098
 965.4000, -60.924
 965.6000, -60.726
 965.8000, -61.173
 966.0000, -61.370
 966.2000, -60.787
 966.4000, -60.713
 966.6000, -61.246
 966.8000, -61.264
 967.0000, -61.021
 967.2000, -60.702
 967.4000, -61.080
 967.6000, -61.458
 967.8000, -61.071
 968.0000, -60.835
 968.2000, -61.320
 968.4000, -61.499
 968.6000, -61.170
 968.8000, -60.834
 969.0000, -61.521
 969.2000, -61.758
 969.4000, -61.428
 969.6000, -60.887
 969.8000, -61.426
 970.0000, -61.848
 970.2000, -61.229
 970.4000, -61.093
 970.6000, -61.359
 970.8000, -61.666
 971.0000, -61.521
 971.2000, -60.988
 971.4000, -61.160
 971.6000, -61.887
 971.8000, -61.648
 972.0000, -61.186
 972.2000, -61.567
 972.4000, -62.013
 972.6000, -61.747
 972.8000, -61.114
 973.0000, -61.302
 973.2000, -62.072
 973.4000, -61.984
 973.6000, -61.525
 973.8000, -61.300
 974.0000, -61.902
 974.2000, -61.979
 974.4000, -61.668
 974.6000, -61.424
 974.8000, -62.016
 975.0000, -62.153
 975.2000, -61.576
 975.4000, -61.408
 975.6000, -62.158
 975.8000, -62.542
 976.0000, -61.929
 976.2000, -61.538
 976.4000, -62.133
 976.6000, -62.680
 976.8000, -62.145
 977.0000, -61.852
 977.2000, -62.038
 977.4000, -62.770
 977.6000, -62.369
 977.8000, -61.898
 978.0000, -62.131
 978.2000, -62.950
 978.4000, -62.533
 978.6000, -61.767
 978.8000, -62.211
 979.0000, -62.935
 979.2000, -62.638
 979.4000, -62.001
 979.6000, -62.199
 979.8000, -62.975
 980.0000, -62.832
 980.2000, -62.083
 980.4000, -61.987
 980.6000, -63.087
 980.8000, -63.054
 981.0000, -62.085
 981.2000, -61.827
 981.4000, -62.741
 981.6000, -62.907
 981.8000, -62.226
 982.0000, -61.991
 982.2000, -62.660
 982.4000, -63.034
 982.6000, -62.202
 982.8000, -61.956
 983.0000, -62.447
 983.2000, -62.954
 983.4000, -62.372
 983.6000, -61.692
 983.8000, -62.304
 984.0000, -62.937
 984.2000, -62.330
 984.4000, -61.504
 984.6000, -62.282
 984.8000, -62.717
 985.0000, -62.080
 985.2000, -61.538
 985.4000, -61.832
 985.6000, -62.749
 985.8000, -62.415
 986.0000, -61.610
 986.2000, -61.967
 986.4000, -62.583
 986.6000, -62.351
 986.8000, -61.793
 987.0000, -61.973
 987.2000, -62.673
 987.4000, -62.435
 987.6000, -61.707
 987.8000, -61.806
 988.0000, -62.478
 988.2000, -62.364
 988.4000, -61.782
 988.6000, -61.452
 988.8000, -62.544
 989.0000, -62.792
 989.2000, -61.682
 989.4000, -61.463
 989.6000, -62.388
 989.8000, -62.821
 990.0000, -61.918
 990.2000, -61.507
 990.4000, -62.200
 990.6000, -62.777
 990.8000, -61.985
 991.0000, -61.482
 991.2000, -61.843
 991.4000, -62.785
 991.6000, -61.948
 991.8000, -61.541
 992.0000, -61.973
 992.2000, -62.810
 992.4000, -62.076
 992.6000, -61.534
 992.8000, -62.035
 993.0000, -62.652
 993.2000, -62.295
 993.4000, -61.670
 993.6000, -62.051
 993.8000, -62.840
 994.0000, -62.468
 994.2000, -61.615
 994.4000, -61.893
 994.6000, -62.616
 994.8000, -62.688
 995.0000, -61.553
 995.2000, -61.671
 995.4000, -62.625
 995.6000, -62.824
 995.8000, -61.869
 996.0000, -61.715
 996.2000, -62.657
 996.4000, -62.964
 996.6000, -61.972
 996.8000, -61.790
 997.0000, -62.934
 997.2000, -63.030
 997.4000, -61.966
 997.6000, -61.959
 997.8000, -62.564
 998.0000, -63.078
 998.2000, -62.556
 998.4000, -61.890
 998.6000, -62.707
 998.8000, -63.327
 999.0000, -62.465
 999.2000, -62.045
 999.4000, -62.697
 999.6000, -63.335
 999.8000, -62.782
1000.0000, -62.051
1000.2000, -62.603
1000.4000, -63.120
1000.6000, -62.768
1000.8000, -62.134
1001.0000, -62.375
1001.2000, -63.266
1001.4000, -62.982
1001.6000, -62.081
1001.8000, -62.374
1002.0000, -63.150
1002.2000, -63.070
1002.4000, -62.360
1002.6000, -62.250
1002.8000, -63.014
1003.0000, -62.952
1003.2000, -62.352
1003.4000, -62.221
1003.6000, -62.906
1003.8000, -63.110
1004.0000, -62.382
1004.2000, -61.946
1004.4000, -62.970
1004.6000, -63.342
1004.8000, -62.596
1005.0000, -62.126
1005.2000, -62.732
1005.4000, -63.270
1005.6000, -62.561
1005.8000, -62.001
1006.0000, -62.682
1006.2000, -63.178
1006.4000, -63.085
1006.6000, -62.348
1006.8000, -62.782
1007.0000, -63.431
1007.2000, -63.339
1007.4000, -62.494
1007.6000, -62.936
1007.8000, -63.535
1008.0000, -63.555
1008.2000, -62.810
1008.4000, -63.062
1008.6000, -63.663
1008.8000, -63.689
1009.0000, -63.117
1009.2000, -63.160
1009.4000, -63.933
1009.6000, -64.288
1009.8000, -63.446
1010.0000, -63.399
1010.2000, -63.989
1010.4000, -64.423
1010.6000, -64.086
1010.8000, -63.492
1011.0000, -64.385
1011.2000, -64.439
1011.4000, -64.108
1011.6000, -63.666
1011.8000, -64.139
1012.0000, -64.494
1012.2000, -64.179
1012.4000, -63.886
1012.6000, -63.973
1012.8000, -64.488
1013.0000, -64.265
1013.2000, -63.521
1013.4000, -63.829
1013.6000, -64.364
1013.8000, -64.143
1014.0000, -63.523
1014.2000, -63.734
1014.4000, -64.291
1014.6000, -64.169
1014.8000, -63.641
1015.0000, -63.510
1015.2000, -64.239
1015.4000, -63.973
1015.6000, -63.552
1015.8000, -63.434
1016.0000, -63.741
1016.2000, -63.884
1016.4000, -63.595
1016.6000, -63.325
1016.8000, -63.693
1017.0000, -63.684
1017.2000, -63.461
1017.4000, -63.264
1017.6000, -63.332
1017.8000, -63.594
1018.0000, -63.387
1018.2000, -62.973
1018.4000, -63.085
1018.6000, -63.358
1018.8000, -63.156
1019.0000, -62.761
1019.2000, -62.886
1019.4000, -63.221
1019.6000, -62.984
1019.8000, -62.742
1020.0000, -62.555
1020.2000, -62.785
1020.4000, -62.848
1020.6000, -62.339
1020.8000, -62.373
1021.0000, -62.522
1021.2000, -62.682
1021.4000, -62.260
1021.6000, -62.176
1021.8000, -62.244
1022.0000, -62.413
1022.2000, -62.094
1022.4000, -61.900
1022.6000, -62.070
1022.8000, -62.147
1023.0000, -62.202
1023.2000, -61.807
1023.4000, -61.813
1023.6000, -61.845
1023.8000, -61.851
1024.0000, -61.666
1024.2000, -61.669
1024.4000, -61.887
1024.6000, -61.702
1024.8000, -61.586
1025.0000, -61.584
1025.2000, -61.709
1025.4000, -61.520
1025.6000, -61.197
1025.8000, -61.291
1026.0000, -61.291
1026.2000, -61.156
1026.4000, -61.033
1026.6000, -61.138
1026.8000, -61.027
1027.0000, -61.085
1027.2000, -61.168
1027.4000, -60.966
1027.6000, -61.120
1027.8000, -60.931
1028.0000, -60.858
1028.2000, -60.734
1028.4000, -60.769
1028.6000, -60.588
1028.8000, -60.410
1029.0000, -60.437
1029.2000, -60.538
1029.4000, -60.259
1029.6000, -60.236
1029.8000, -60.335
1030.0000, -60.353
1030.2000, -60.343
1030.4000, -60.413
1030.6000, -60.355
1030.8000, -60.116
1031.0000, -60.273
1031.2000, -60.139
1031.4000, -60.212
1031.6000, -60.344
1031.8000, -60.268
1032.0000, -60.133
1032.2000, -60.147
1032.4000, -60.145
1032.6000, -60.223
1032.8000, -59.879
1033.0000, -59.745
1033.2000, -59.861
1033.4000, -60.064
1033.6000, -59.774
1033.8000, -59.734
1034.0000, -59.809
1034.2000, -60.101
1034.4000, -59.797
1034.6000, -59.613
1034.8000, -59.463
1035.0000, -59.944
1035.2000, -59.806
1035.4000, -59.513
1035.6000, -59.478
1035.8000, -59.776
1036.0000, -59.854
1036.2000, -59.394
1036.4000, -59.375
1036.6000, -59.652
1036.8000, -59.717
1037.0000, -59.529
1037.2000, -59.213
1037.4000, -59.513
1037.6000, -59.866
1037.8000, -59.689
1038.0000, -59.244
1038.2000, -59.473
1038.4000, -59.931
1038.6000, -59.893
1038.8000, -59.469
1039.0000, -59.370
1039.2000, -59.661
1039.4000, -59.938
1039.6000, -59.640
1039.8000, -59.450
1040.0000, -59.877
1040.2000, -59.963
1040.4000, -59.777
1040.6000, -59.228
1040.8000, -59.737
1041.0000, -60.173
1041.2000, -59.913
1041.4000, -59.399
1041.6000, -59.556
1041.8000, -59.988
1042.0000, -60.082
1042.2000, -59.650
1042.4000, -59.482
1042.6000, -59.890
1042.8000, -60.057
1043.0000, -59.497
1043.2000, -59.298
1043.4000, -59.767
1043.6000, -60.002
1043.8000, -59.786
1044.0000, -59.407
1044.2000, -59.455
1044.4000, -60.147
1044.6000, -59.999
1044.8000, -59.395
1045.0000, -59.392
1045.2000, -59.768
1045.4000, -59.943
1045.6000, -59.553
1045.8000, -59.111
1046.0000, -59.361
1046.2000, -59.876
1046.4000, -59.429
1046.6000, -58.982
1046.8000, -59.068
1047.0000, -59.521
1047.2000, -59.312
1047.4000, -58.793
1047.6000, -58.294
1047.8000, -59.414
1048.0000, -58.935
1048.2000, -58.216
1048.4000, -57.970
1048.6000, -58.385
1048.8000, -58.521
1049.0000, -57.715
1049.2000, -57.427
1049.4000, -57.522
1049.6000, -58.038
1049.8000, -58.082
1050.0000, -57.309
1050.2000, -57.048
1050.4000, -57.841
1050.6000, -57.664
1050.8000, -57.371
1051.0000, -57.087
1051.2000, -57.855
1051.4000, -58.377
1051.6000, -57.684
1051.8000, -57.274
1052.0000, -57.709
1052.2000, -58.471
1052.4000, -58.314
1052.6000, -57.911
1052.8000, -57.897
1053.0000, -58.644
1053.2000, -58.651
1053.4000, -58.239
1053.6000, -57.984
1053.8000, -58.945
1054.0000, -59.262
1054.2000, -58.668
1054.4000, -58.267
1054.6000, -58.709
1054.8000, -59.510
1055.0000, -59.349
1055.2000, -58.698
1055.4000, -58.744
1055.6000, -59.151
1055.8000, -59.737
1056.0000, -59.109
1056.2000, -58.553
1056.4000, -59.175
1056.6000, -59.641
1056.8000, -59.233
1057.0000, -58.677
1057.2000, -58.973
1057.4000, -59.374
1057.6000, -59.577
1057.8000, -58.760
1058.0000, -58.577
1058.2000, -59.135
1058.4000, -59.510
1058.6000, -58.828
1058.8000, -58.169
1059.0000, -58.486
1059.2000, -59.034
1059.4000, -58.859
1059.6000, -58.086
1059.8000, -57.844
1060.0000, -58.413
1060.2000, -58.572
1060.4000, -57.800
1060.6000, -57.238
1060.8000, -57.491
1061.0000, -57.893
1061.2000, -57.579
1061.4000, -56.643
1061.6000, -56.918
1061.8000, -57.427
1062.0000, -57.312
1062.2000, -56.868
1062.4000, -56.246
1062.6000, -56.450
1062.8000, -56.716
1063.0000, -55.744
1063.2000, -55.003
1063.4000, -54.641
1063.6000, -52.991
1063.8000, -40.024
1064.0000, -33.165
1064.2000, -31.713
1064.4000, -31.686
1064.6000, -31.584
1064.8000, -31.935
1065.0000, -34.697
1065.2000, -48.533
1065.4000, -56.879
1065.6000, -56.229
1065.8000, -55.862
1066.0000, -55.842
1066.2000, -56.345
1066.4000, -57.473
1066.6000, -56.391
1066.8000, -56.258
1067.0000, -56.490
1067.2000, -56.996
1067.4000, -56.789
1067.6000, -56.016
1067.8000, -56.141
1068.0000, -56.942
1068.2000, -57.211
1068.4000, -56.455
1068.6000, -56.462
1068.8000, -56.704
1069.0000, -57.412
1069.2000, -57.247
1069.4000, -56.708
1069.6000, -56.963
1069.8000, -57.614
1070.0000, -57.764
1070.2000, -57.242
1070.4000, -56.838
1070.6000, -57.386
1070.8000, -57.805
1071.0000, -57.357
1071.2000, -57.068
1071.4000, -57.079
1071.6000, -57.539
1071.8000, -57.689
1072.0000, -57.185
1072.2000, -56.698
1072.4000, -57.183
1072.6000, -57.683
1072.8000, -57.372
1073.0000, -56.850
1073.2000, -56.884
1073.4000, -57.421
1073.6000, -57.275
1073.8000, -56.921
1074.0000, -56.590
1074.2000, -56.857
1074.4000, -57.362
1074.6000, -56.911
1074.8000, -56.441
1075.0000, -56.351
1075.2000, -56.728
1075.4000, -56.804
1075.6000, -56.346
1075.8000, -55.978
1076.0000, -56.000
1076.2000, -56.412
1076.4000, -56.137
1076.6000, -55.491
1076.8000, -55.321
1077.0000, -55.880
1077.2000, -55.844
1077.4000, -55.189
1077.6000, -54.774
1077.8000, -54.895
1078.0000, -55.551
1078.2000, -55.267
1078.4000, -54.725
1078.6000, -54.091
1078.8000, -54.300
1079.0000, -54.561
1079.2000, -54.533
1079.4000, -53.850
1079.6000, -54.043
1079.8000, -54.598
1080.0000, -54.660
1080.2000, -53.964
1080.4000, -53.838
1080.6000, -54.223
1080.8000, -55.007
1081.0000, -54.496
1081.2000, -54.136
1081.4000, -54.031
1081.6000, -54.655
1081.8000, -54.658
1082.0000, -53.990
1082.2000, -53.849
1082.4000, -54.545
1082.6000, -54.934
1082.8000, -54.841
1083.0000, -54.289
1083.2000, -54.898
1083.4000, -55.014
1083.6000, -55.335
1083.8000, -54.972
1084.0000, -54.840
1084.2000, -55.309
1084.4000, -55.738
1084.6000, -55.606
1084.8000, -55.472
1085.0000, -55.558
1085.2000, -55.916
1085.4000, -55.788
1085.6000, -55.782
1085.8000, -55.538
1086.0000, -55.783
1086.2000, -56.171
1086.4000, -56.260
1086.6000, -55.965
1086.8000, -55.845
1087.0000, -56.226
1087.2000, -56.438
1087.4000, -56.383
1087.6000, -56.162
1087.8000, -56.227
1088.0000, -56.315
1088.2000, -56.422
1088.4000, -56.319
1088.6000, -55.916
1088.8000, -56.044
1089.0000, -56.217
1089.2000, -56.377
1089.4000, -56.086
1089.6000, -56.061
1089.8000, -56.230
1090.0000, -56.373
1090.2000, -56.273
1090.4000, -55.853
1090.6000, -55.821
1090.8000, -55.964
1091.0000, -56.312
1091.2000, -56.100
1091.4000, -56.037
1091.6000, -55.934
1091.8000, -56.049
1092.0000, -56.054
1092.2000, -55.929
1092.4000, -55.688
1092.6000, -55.604
1092.8000, -56.092
1093.0000, -56.029
1093.2000, -55.538
1093.4000, -55.654
1093.6000, -55.808
1093.8000, -55.872
1094.0000, -55.797
1094.2000, -55.806
1094.4000, -55.561
1094.6000, -55.683
1094.8000, -55.735
1095.0000, -55.442
1095.2000, -55.382
1095.4000, -55.351
1095.6000, -55.351
1095.8000, -55.354
1096.0000, -55.248
1096.2000, -55.286
1096.4000, -55.412
1096.6000, -55.523
1096.8000, -55.197
1097.0000, -55.287
1097.2000, -55.205
1097.4000, -55.335
1097.6000, -55.270
1097.8000, -55.101
1098.0000, -55.180
1098.2000, -55.208
1098.4000, -55.245
1098.6000, -55.186
1098.8000, -55.133
1099.0000, -54.930
1099.2000, -55.191
1099.4000, -54.891
1099.6000, -55.082
1099.8000, -54.922
1100.0000, -54.743
1100.2000, -55.119
1100.4000, -55.007
1100.6000, -54.856
1100.8000, -54.706
1101.0000, -55.036
1101.2000, -54.983
1101.4000, -54.936
1101.6000, -54.750
1101.8000, -54.793
1102.0000, -55.079
1102.2000, -54.897
1102.4000, -54.860
1102.6000, -54.982
1102.8000, -55.023
1103.0000, -54.947
1103.2000, -54.933
1103.4000, -55.088
1103.6000, -54.907
1103.8000, -55.286
1104.0000, -55.070
1104.2000, -55.069
1104.4000, -54.886
1104.6000, -54.751
1104.8000, -55.186
1105.0000, -55.124
1105.2000, -54.836
1105.4000, -54.930
1105.6000, -54.854
1105.8000, -55.013
1106.0000, -55.032
1106.2000, -54.906
1106.4000, -54.891
1106.6000, -54.966
1106.8000, -54.950
1107.0000, -55.180
1107.2000, -54.950
1107.4000, -54.783
1107.6000, -54.955
1107.8000, -55.039
1108.0000, -54.823
1108.2000, -54.775
1108.4000, -54.667
1108.6000, -54.682
1108.8000, -54.840
1109.0000, -54.674
1109.2000, -54.739
1109.4000, -54.509
1109.6000, -54.746
1109.8000, -54.845
1110.0000, -54.633
1110.2000, -54.706
1110.4000, -54.596
1110.6000, -54.582
1110.8000, -54.618
1111.0000, -54.557
1111.2000, -54.551
1111.4000, -54.479
1111.6000, -54.849
1111.8000, -54.635
1112.0000, -54.645
1112.2000, -54.489
1112.4000, -54.473
1112.6000, -54.778
1112.8000, -54.734
1113.0000, -54.616
1113.2000, -54.504
1113.4000, -54.489
1113.6000, -54.703
1113.8000, -54.559
1114.0000, -54.451
1114.2000, -54.510
1114.4000, -54.503
1114.6000, -54.581
1114.8000, -54.490
1115.0000, -54.442
1115.2000, -54.569
1115.4000, -54.528
1115.6000, -54.527
1115.8000, -54.780
1116.0000, -54.623
1116.2000, -54.599
1116.4000, -54.606
1116.6000, -54.696
1116.8000, -54.803
1117.0000, -54.580
1117.2000, -54.523
1117.4000, -54.495
1117.6000, -54.562
1117.8000, -54.637
1118.0000, -54.497
1118.2000, -54.607
1118.4000, -54.546
1118.6000, -54.704
1118.8000, -54.824
1119.0000, -54.693
1119.2000, -54.530
1119.4000, -54.831
1119.6000, -54.702
1119.8000, -54.748
1120.0000, -54.769
1120.2000, -54.751
1120.4000, -54.853
1120.6000, -54.843
1120.8000, -54.957
1121.0000, -54.776
1121.2000, -54.549
1121.4000, -54.635
1121.6000, -54.909
1121.8000, -54.858
1122.0000, -54.819
1122.2000, -54.863
1122.4000, -54.855
1122.6000, -54.803
1122.8000, -54.784
1123.0000, -54.953
1123.2000, -54.794
1123.4000, -54.917
1123.6000, -54.947
1123.8000, -55.199
1124.0000, -55.032
1124.2000, -55.088
1124.4000, -55.030
1124.6000, -55.305
1124.8000, -55.326
1125.0000, -55.224
1125.2000, -55.182
1125.4000, -55.263
1125.6000, -55.384
1125.8000, -55.544
1126.0000, -55.304
1126.2000, -55.298
1126.4000, -55.367
1126.6000, -55.487
1126.8000, -55.412
1127.0000, -55.386
1127.2000, -55.459
1127.4000, -55.619
1127.6000, -55.594
1127.8000, -55.621
1128.0000, -55.774
1128.2000, -55.785
1128.4000, -55.934
1128.6000, -55.525
1128.8000, -55.704
1129.0000, -55.747
1129.2000, -55.802
1129.4000, -55.807
1129.6000, -55.694
1129.8000, -55.992
1130.0000, -55.749
1130.2000, -55.982
1130.4000, -55.916
1130.6000, -56.047
1130.8000, -55.877
1131.0000, -55.997
1131.2000, -56.041
1131.4000, -55.866
1131.6000, -56.031
1131.8000, -56.020
1132.0000, -56.101
1132.2000, -56.189
1132.4000, -55.964
1132.6000, -55.996
1132.8000, -56.122
1133.0000, -56.137
1133.2000, -56.301
1133.4000, -56.160
1133.6000, -56.172
1133.8000, -56.155
1134.0000, -56.306
1134.2000, -56.161
1134.4000, -56.240
1134.6000, -56.379
1134.8000, -56.235
1135.0000, -56.221
1135.2000, -56.334
1135.4000, -56.436
1135.6000, -56.482
1135.8000, -56.413
1136.0000, -56.271
1136.2000, -56.566
1136.4000, -56.487
1136.6000, -56.349
1136.8000, -56.464
1137.0000, -56.311
1137.2000, -56.375
1137.4000, -56.534
1137.6000, -56.596
1137.8000, -56.601
1138.0000, -56.472
1138.2000, -56.569
1138.4000, -56.595
1138.6000, -56.601
1138.8000, -56.752
1139.0000, -56.729
1139.2000, -56.581
1139.4000, -56.463
1139.6000, -56.571
1139.8000, -56.724
1140.0000, -56.725
1140.2000, -56.611
1140.4000, -56.689
1140.6000, -56.599
1140.8000, -56.858
1141.0000, -56.815
1141.2000, -56.935
1141.4000, -56.716
1141.6000, -56.867
1141.8000, -57.092
1142.0000, -57.205
1142.2000, -57.150
1142.4000, -56.855
1142.6000, -57.009
1142.8000, -57.095
1143.0000, -57.157
1143.2000, -57.030
1143.4000, -56.829
1143.6000, -56.955
1143.8000, -57.113
1144.0000, -57.322
1144.2000, -57.125
1144.4000, -57.173
1144.6000, -56.987
1144.8000, -57.050
1145.0000, -57.140
1145.2000, -57.484
1145.4000, -57.161
1145.6000, -57.065
1145.8000, -56.824
1146.0000, -57.446
1146.2000, -57.436
1146.4000, -57.234
1146.6000, -57.167
1146.8000, -57.086
1147.0000, -57.496
1147.2000, -57.536
1147.4000, -57.440
1147.6000, -57.160
1147.8000, -57.211
1148.0000, -57.152
1148.2000, -57.350
1148.4000, -57.572
1148.6000, -57.374
1148.8000, -57.247
1149.0000, -57.153
1149.2000, -57.371
1149.4000, -57.527
1149.6000, -57.698
1149.8000, -57.411
1150.0000, -57.164
1150.2000, -57.411
1150.4000, -57.652
1150.6000, -57.549
1150.8000, -57.438
1151.0000, -57.334
1151.2000, -57.383
1151.4000, -57.490
1151.6000, -57.816
1151.8000, -57.655
1152.0000, -57.370
1152.2000, -57.465
1152.4000, -57.488
1152.6000, -57.747
1152.8000, -57.767
1153.0000, -57.650
1153.2000, -57.413
1153.4000, -57.262
1153.6000, -57.588
1153.8000, -57.790
1154.0000, -57.778
1154.2000, -57.601
1154.4000, -57.404
1154.6000, -57.534
1154.8000, -57.738
1155.0000, -57.774
1155.2000, -57.603
1155.4000, -57.402
1155.6000, -57.466
1155.8000, -57.604
1156.0000, -57.689
1156.2000, -57.772
1156.4000, -57.484
1156.6000, -57.442
1156.8000, -57.392
1157.0000, -57.554
1157.2000, -57.810
1157.4000, -57.584
1157.6000, -57.553
1157.8000, -57.482
1158.0000, -57.677
1158.2000, -57.762
1158.4000, -57.857
1158.6000, -57.807
1158.8000, -57.461
1159.0000, -57.546
1159.2000, -57.767
1159.4000, -57.835
1159.6000, -57.780
1159.8000, -57.772
1160.0000, -57.504
1160.2000, -57.425
1160.4000, -57.774
1160.6000, -58.013
1160.8000, -57.694
1161.0000, -57.517
1161.2000, -57.612
1161.4000, -57.921
1161.6000, -57.820
1161.8000, -57.839
1162.0000, -57.693
1162.2000, -57.604
1162.4000, -57.530
1162.6000, -57.683
1162.8000, -57.781
1163.0000, -57.833
1163.2000, -57.607
1163.4000, -57.542
1163.6000, -57.555
1163.8000, -57.684
1164.0000, -57.874
1164.2000, -57.740
1164.4000, -57.517
1164.6000, -57.537
1164.8000, -57.738
1165.0000, -57.839
1165.2000, -57.850
1165.4000, -57.865
1165.6000, -57.847
1165.8000, -57.493
1166.0000, -57.796
1166.2000, -57.828
1166.4000, -57.790
1166.6000, -57.915
1166.8000, -57.866
1167.0000, -57.760
1167.2000, -57.793
1167.4000, -58.114
1167.6000, -57.778
1167.8000, -57.827
1168.0000, -57.802
1168.2000, -57.744
1168.4000, -57.918
1168.6000, -57.828
1168.8000, -57.930
1169.0000, -57.816
1169.2000, -57.879
1169.4000, -57.860
1169.6000, -57.768
1169.8000, -58.050
1170.0000, -57.929
1170.2000, -57.920
1170.4000, -57.898
1170.6000, -57.982
1170.8000, -58.075
1171.0000, -58.033
1171.2000, -57.906
1171.4000, -58.003
1171.6000, -58.177
1171.8000, -58.018
1172.0000, -58.114
1172.2000, -58.048
1172.4000, -58.166
1172.6000, -58.251
1172.8000, -58.045
1173.0000, -58.070
1173.2000, -57.933
1173.4000, -58.129
1173.6000, -58.079
1173.8000, -58.113
1174.0000, -58.216
1174.2000, -58.035
1174.4000, -58.107
1174.6000, -58.289
1174.8000, -58.239
1175.0000, -58.249
1175.2000, -58.243
1175.4000, -58.141
1175.6000, -58.116
1175.8000, -58.352
1176.0000, -58.339
1176.2000, -58.390
1176.4000, -58.422
1176.6000, -58.177
1176.8000, -58.175
1177.0000, -58.275
1177.2000, -58.570
1177.4000, -58.267
1177.6000, -58.182
1177.8000, -58.183
1178.0000, -58.268
1178.2000, -58.525
1178.4000, -58.512
1178.6000, -58.788
1178.8000, -58.322
1179.0000, -58.357
1179.2000, -58.285
1179.4000, -58.621
1179.6000, -58.726
1179.8000, -58.616
1180.0000, -58.405
1180.2000, -58.509
1180.4000, -58.470
1180.6000, -58.622
1180.8000, -58.787
1181.0000, -58.653
1181.2000, -58.625
1181.4000, -58.278
1181.6000, -58.221
1181.8000, -58.673
1182.0000, -58.977
1182.2000, -58.856
1182.4000, -58.786
1182.6000, -58.474
1182.8000, -58.273
1183.0000, -58.740
1183.2000, -58.927
1183.4000, -59.185
1183.6000, -58.736
1183.8000, -58.462
1184.0000, -58.423
1184.2000, -58.966
1184.4000, -59.048
1184.6000, -59.118
1184.8000, -59.064
1185.0000, -58.507
1185.2000, -58.659
1185.4000, -58.773
1185.6000, -59.242
1185.8000, -59.395
1186.0000, -59.016
1186.2000, -58.677
1186.4000, -58.547
1186.6000, -58.821
1186.8000, -59.091
1187.0000, -59.359
1187.2000, -59.239
1187.4000, -58.839
1187.6000, -58.671
1187.8000, -58.995
1188.0000, -59.114
1188.2000, -59.596
1188.4000, -59.331
1188.6000, -58.979
1188.8000, -58.884
1189.0000, -58.949
1189.2000, -59.363
1189.4000, -59.836
1189.6000, -59.580
1189.8000, -59.079
1190.0000, -58.531
1190.2000, -58.652
1190.4000, -59.308
1190.6000, -59.769
1190.8000, -59.713
1191.0000, -59.168
1191.2000, -58.903
1191.4000, -58.803
1191.6000, -59.224
1191.8000, -59.748
1192.0000, -59.847
1192.2000, -59.382
1192.4000, -58.891
1192.6000, -58.837
1192.8000, -59.097
1193.0000, -59.686
1193.2000, -59.956
1193.4000, -59.470
1193.6000, -58.813
1193.8000, -58.767
1194.0000, -59.154
1194.2000, -59.726
1194.4000, -60.070
1194.6000, -59.708
1194.8000, -59.273
1195.0000, -58.869
1195.2000, -58.946
1195.4000, -59.741
1195.6000, -60.334
1195.8000, -60.108
1196.0000, -59.426
1196.2000, -58.869
1196.4000, -58.860
1196.6000, -59.467
1196.8000, -60.081
1197.0000, -60.287
1197.2000, -59.686
1197.4000, -58.965
1197.6000, -58.947
1197.8000, -59.232
1198.0000, -59.936
1198.2000, -60.362
1198.4000, -60.017
1198.6000, -59.294
1198.8000, -58.909
1199.0000, -59.221
1199.2000, -59.838
1199.4000, -60.345
1199.6000, -60.448
1199.8000, -59.621
1200.0000, -58.867
1200.2000, -58.948
1200.4000, -59.638
1200.6000, -60.568
1200.8000, -60.698
1201.0000, -60.179
1201.2000, -59.390
1201.4000, -58.862
1201.6000, -59.325
1201.8000, -60.100
1202.0000, -60.794
1202.2000, -60.544
1202.4000, -59.828
1202.6000, -58.987
1202.8000, -58.995
1203.0000, -59.691
1203.2000, -60.670
1203.4000, -60.952
1203.6000, -60.066
1203.8000, -59.248
1204.0000, -59.028
1204.2000, -59.543
1204.4000, -60.416
1204.6000, -61.098
1204.8000, -60.732
1205.0000, -59.885
1205.2000, -59.146
1205.4000, -59.319
1205.6000, -60.063
1205.8000, -60.933
1206.0000, -61.236
1206.2000, -60.300
1206.4000, -59.398
1206.6000, -59.258
1206.8000, -59.600
1207.0000, -60.441
1207.2000, -61.142
1207.4000, -61.062
1207.6000, -59.930
1207.8000, -59.325
1208.0000, -59.261
1208.2000, -59.884
1208.4000, -60.981
1208.6000, -61.424
1208.8000, -60.705
1209.0000, -59.850
1209.2000, -59.314
1209.4000, -59.556
1209.6000, -60.466
1209.8000, -61.279
1210.0000, -61.246
1210.2000, -60.545
1210.4000, -59.614
1210.6000, -59.272
1210.8000, -59.803
1211.0000, -60.891
1211.2000, -61.482
1211.4000, -61.030
1211.6000, -59.906
1211.8000, -59.461
1212.0000, -59.491
1212.2000, -60.355
1212.4000, -61.250
1212.6000, -61.632
1212.8000, -60.802
1213.0000, -59.690
1213.2000, -59.363
1213.4000, -59.566
1213.6000, -60.682
1213.8000, -61.522
1214.0000, -61.429
1214.2000, -60.547
1214.4000, -59.615
1214.6000, -59.599
1214.8000, -59.991
1215.0000, -61.024
1215.2000, -61.926
1215.4000, -61.385
1215.6000, -60.480
1215.8000, -59.670
1216.0000, -59.654
1216.2000, -60.266
1216.4000, -61.382
1216.6000, -61.780
1216.8000, -61.075
1217.0000, -60.140
1217.2000, -59.511
1217.4000, -59.803
1217.6000, -60.612
1217.8000, -61.547
1218.0000, -61.835
1218.2000, -60.989
1218.4000, -60.186
1218.6000, -59.576
1218.8000, -59.810
1219.0000, -60.751
1219.2000, -61.738
1219.4000, -61.895
1219.6000, -60.835
1219.8000, -60.007
1220.0000, -59.572
1220.2000, -60.056
1220.4000, -60.796
1220.6000, -61.791
1220.8000, -61.763
1221.0000, -60.857
1221.2000, -60.208
1221.4000, -59.902
1221.6000, -60.296
1221.8000, -61.043
1222.0000, -61.855
1222.2000, -61.769
1222.4000, -60.789
1222.6000, -59.872
1222.8000, -59.908
1223.0000, -60.204
1223.2000, -61.323
1223.4000, -61.868
1223.6000, -61.756
1223.8000, -60.925
1224.0000, -60.126
1224.2000, -59.940
1224.4000, -60.429
1224.6000, -61.368
1224.8000, -62.109
1225.0000, -61.835
1225.2000, -60.811
1225.4000, -60.286
1225.6000, -59.865
1225.8000, -60.293
1226.0000, -61.418
1226.2000, -62.114
1226.4000, -61.895
1226.6000, -60.945
1226.8000, -60.531
1227.0000, -60.178
1227.2000, -60.622
1227.4000, -61.443
1227.6000, -61.737
1227.8000, -61.863
1228.0000, -61.159
1228.2000, -60.535
1228.4000, -60.302
1228.6000, -60.739
1228.8000, -61.507
1229.0000, -61.975
1229.2000, -62.050
1229.4000, -61.294
1229.6000, -60.615
1229.8000, -60.360
1230.0000, -60.725
1230.2000, -61.395
1230.4000, -62.040
1230.6000, -61.924
1230.8000, -61.532
1231.0000, -60.916
1231.2000, -60.556
1231.4000, -60.667
1231.6000, -61.598
1231.8000, -61.976
1232.0000, -61.909
1232.2000, -61.376
1232.4000, -60.910
1232.6000, -60.586
1232.8000, -60.671
1233.0000, -61.406
1233.2000, -62.042
1233.4000, -61.975
1233.6000, -61.792
1233.8000, -61.203
1234.0000, -60.837
1234.2000, -60.891
1234.4000, -61.395
1234.6000, -61.816
1234.8000, -62.247
1235.0000, -61.913
1235.2000, -61.243
1235.4000, -60.906
1235.6000, -60.993
1235.8000, -61.439
1236.0000, -61.668
1236.2000, -61.946
1236.4000, -61.996
1236.6000, -61.588
1236.8000, -61.093
1237.0000, -61.010
1237.2000, -61.296
1237.4000, -61.676
1237.6000, -61.862
1237.8000, -62.191
1238.0000, -61.651
1238.2000, -61.441
1238.4000, -61.270
1238.6000, -61.274
1238.8000, -61.815
1239.0000, -62.088
1239.2000, -61.943
1239.4000, -62.032
1239.6000, -61.545
1239.8000, -61.511
1240.0000, -61.347
1240.2000, -61.640
1240.4000, -61.861
1240.6000, -61.920
1240.8000, -61.996
1241.0000, -61.835
1241.2000, -61.572
1241.4000, -61.537
1241.6000, -61.738
1241.8000, -61.832
1242.0000, -61.924
1242.2000, -61.903
1242.4000, -62.080
1242.6000, -61.689
1242.8000, -61.861
1243.0000, -61.753
1243.2000, -61.812
1243.4000, -62.273
1243.6000, -62.128
1243.8000, -62.050
1244.0000, -62.069
1244.2000, -61.910
1244.4000, -61.830
1244.6000, -62.053
1244.8000, -61.902
1245.0000, -61.992
1245.2000, -62.059
1245.4000, -61.993
1245.6000, -62.241
1245.8000, -62.274
1246.0000, -62.307
1246.2000, -62.030
1246.4000, -61.996
1246.6000, -62.187
1246.8000, -62.030
1247.0000, -62.118
1247.2000, -62.147
1247.4000, -62.218
1247.6000, -62.106
1247.8000, -61.978
1248.0000, -62.051
1248.2000, -62.109
1248.4000, -62.321
1248.6000, -62.277
1248.8000, -62.416
1249.0000, -62.440
1249.2000, -62.258
1249.4000, -62.172
1249.6000, -61.833
1249.8000, -62.227
1250.0000, -62.089
1250.2000, -62.441
1250.4000, -62.514
1250.6000, -62.685
1250.8000, -62.480
1251.0000, -62.199
1251.2000, -62.087
1251.4000, -61.913
1251.6000, -62.465
1251.8000, -62.688
1252.0000, -63.079
1252.2000, -62.848
1252.4000, -62.423
1252.6000, -62.088
1252.8000, -61.838
1253.0000, -62.106
1253.2000, -62.504
1253.4000, -62.865
1253.6000, -63.238
1253.8000, -62.868
1254.0000, -62.366
1254.2000, -62.051
1254.4000, -61.967
1254.6000, -62.232
1254.8000, -62.721
1255.0000, -63.349
1255.2000, -63.229
1255.4000, -62.858
1255.6000, -62.243
1255.8000, -61.837
1256.0000, -62.017
1256.2000, -62.240
1256.4000, -62.967
1256.6000, -63.452
1256.8000, -63.530
1257.0000, -62.874
1257.2000, -62.376
1257.4000, -61.961
1257.6000, -62.075
1257.8000, -62.472
1258.0000, -63.220
1258.2000, -63.484
1258.4000, -63.559
1258.6000, -63.195
1258.8000, -62.347
1259.0000, -61.693
1259.2000, -62.025
1259.4000, -62.527
1259.6000, -63.419
1259.8000, -63.830
1260.0000, -63.832
1260.2000, -63.120
1260.4000, -62.226
1260.6000, -61.852
1260.8000, -61.887
1261.0000, -62.522
1261.2000, -63.457
1261.4000, -64.108
1261.6000, -63.719
1261.8000, -62.952
1262.0000, -62.180
1262.2000, -61.903
1262.4000, -61.966
1262.6000, -62.737
1262.8000, -63.326
1263.0000, -64.359
1263.2000, -64.139
1263.4000, -63.118
1263.6000, -62.249
1263.8000, -61.844
1264.0000, -61.999
1264.2000, -62.710
1264.4000, -63.610
1264.6000, -64.440
1264.8000, -64.446
1265.0000, -63.463
1265.2000, -62.584
1265.4000, -61.882
1265.6000, -61.824
1265.8000, -62.432
1266.0000, -63.533
1266.2000, -64.502
1266.4000, -64.424
1266.6000, -63.688
1266.8000, -62.562
1267.0000, -61.756
1267.2000, -61.836
1267.4000, -62.433
1267.6000, -63.412
1267.8000, -64.884
1268.0000, -64.940
1268.2000, -64.174
1268.4000, -62.888
1268.6000, -62.171
1268.8000, -62.019
1269.0000, -62.372
1269.2000, -63.180
1269.4000, -64.474
1269.6000, -65.166
1269.8000, -64.577
1270.0000, -63.384
1270.2000, -62.173
1270.4000, -61.849
1270.6000, -61.951
1270.8000, -63.008
1271.0000, -64.249
1271.2000, -65.322
1271.4000, -65.149
1271.6000, -64.052
1271.8000, -62.680
1272.0000, -61.958
1272.2000, -61.788
1272.4000, -62.538
1272.6000, -63.496
1272.8000, -65.059
1273.0000, -65.356
1273.2000, -64.374
1273.4000, -63.268
1273.6000, -62.096
1273.8000, -61.669
1274.0000, -62.347
1274.2000, -63.107
1274.4000, -64.799
1274.6000, -65.765
1274.8000, -65.195
1275.0000, -63.864
1275.2000, -62.553
1275.4000, -62.039
1275.6000, -62.024
1275.8000, -62.679
1276.0000, -64.379
1276.2000, -65.480
1276.4000, -65.922
1276.6000, -64.651
1276.8000, -63.383
1277.0000, -62.212
1277.2000, -61.892
1277.4000, -62.446
1277.6000, -63.680
1277.8000, -65.038
1278.0000, -65.959
1278.2000, -65.670
1278.4000, -64.249
1278.6000, -62.873
1278.8000, -62.183
1279.0000, -62.215
1279.2000, -62.876
1279.4000, -64.362
1279.6000, -65.926
1279.8000, -66.469
1280.0000, -65.398
1280.2000, -63.598
1280.4000, -62.520
1280.6000, -62.026
1280.8000, -62.437
1281.0000, -63.359
1281.2000, -65.011
1281.4000, -66.226
1281.6000, -66.234
1281.8000, -64.912
1282.0000, -63.276
1282.2000, -62.541
1282.4000, -62.168
1282.6000, -62.616
1282.8000, -63.566
1283.0000, -65.397
1283.2000, -66.566
1283.4000, -66.019
1283.6000, -64.646
1283.8000, -63.107
1284.0000, -62.283
1284.2000, -62.281
1284.4000, -62.933
1284.6000, -63.994
1284.8000, -65.730
1285.0000, -66.978
1285.2000, -65.971
1285.4000, -64.322
1285.6000, -62.844
1285.8000, -62.383
1286.0000, -62.352
1286.2000, -63.307
1286.4000, -64.506
1286.6000, -66.200
1286.8000, -66.834
1287.0000, -65.795
1287.2000, -64.266
1287.4000, -62.782
1287.6000, -62.284
1287.8000, -62.539
1288.0000, -63.422
1288.2000, -64.566
1288.4000, -66.401
1288.6000, -66.546
1288.8000, -65.632
1289.0000, -64.217
1289.2000, -62.968
1289.4000, -62.287
1289.6000, -62.700
1289.8000, -63.425
1290.0000, -64.587
1290.2000, -66.244
1290.4000, -66.784
1290.6000, -65.723
1290.8000, -64.330
1291.0000, -62.991
1291.2000, -62.574
1291.4000, -62.791
1291.6000, -63.527
1291.8000, -64.776
1292.0000, -66.274
1292.2000, -66.637
1292.4000, -65.704
1292.6000, -64.374
1292.8000, -63.186
1293.0000, -62.638
1293.2000, -62.887
1293.4000, -63.481
1293.6000, -64.746
1293.8000, -66.073
1294.0000, -66.755
1294.2000, -65.823
1294.4000, -64.696
1294.6000, -63.386
1294.8000, -62.757
1295.0000, -62.735
1295.2000, -63.480
1295.4000, -64.635
1295.6000, -66.032
1295.8000, -67.031
1296.0000, -66.330
1296.2000, -65.024
1296.4000, -63.700
1296.6000, -63.008
1296.8000, -62.999
1297.0000, -63.170
1297.2000, -64.381
1297.4000, -65.578
1297.6000, -66.759
1297.8000, -66.449
1298.0000, -65.238
1298.2000, -64.260
1298.4000, -63.369
1298.6000, -63.197
1298.8000, -63.390
1299.0000, -64.062
1299.2000, -65.395
1299.4000, -66.449
1299.6000, -66.679
1299.8000, -66.084
1300.0000, -64.692
1300.2000, -63.743
1300.4000, -63.272
1300.6000, -63.397
1300.8000, -63.932
1301.0000, -65.088
1301.2000, -66.076
1301.4000, -67.108
1301.6000, -66.504
1301.8000, -65.396
1302.0000, -64.256
1302.2000, -63.528
1302.4000, -63.419
1302.6000, -63.637
1302.8000, -64.461
1303.0000, -65.870
1303.2000, -66.472
1303.4000, -66.568
1303.6000, -65.662
1303.8000, -64.958
1304.0000, -63.993
1304.2000, -63.655
1304.4000, -63.609
1304.6000, -64.357
1304.8000, -65.002
1305.0000, -65.911
1305.2000, -66.261
1305.4000, -66.216
1305.6000, -65.432
1305.8000, -64.581
1306.0000, -63.886
1306.2000, -63.830
1306.4000, -64.235
1306.6000, -64.643
1306.8000, -65.362
1307.0000, -66.117
1307.2000, -66.194
1307.4000, -65.774
1307.6000, -65.196
1307.8000, -64.437
1308.0000, -64.086
1308.2000, -63.957
1308.4000, -64.351
1308.6000, -64.703
1308.8000, -65.631
1309.0000, -66.226
1309.2000, -66.311
1309.4000, -65.621
1309.6000, -65.001
1309.8000, -64.617
1310.0000, -64.200
1310.2000, -64.247
1310.4000, -64.599
1310.6000, -65.357
1310.8000, -65.979
1311.0000, -66.159
1311.2000, -66.034
1311.4000, -65.602
1311.6000, -65.090
1311.8000, -64.508
1312.0000, -64.403
1312.2000, -64.254
1312.4000, -64.720
1312.6000, -65.293
1312.8000, -65.825
1313.0000, -66.006
1313.2000, -65.934
1313.4000, -65.594
1313.6000, -65.194
1313.8000, -64.793
1314.0000, -64.778
1314.2000, -64.815
1314.4000, -65.100
1314.6000, -65.544
1314.8000, -65.687
1315.0000, -65.784
1315.2000, -65.602
1315.4000, -65.310
1315.6000, -65.279
1315.8000, -64.887
1316.0000, -64.825
1316.2000, -64.913
1316.4000, -65.318
1316.6000, -65.418
1316.8000, -65.567
1317.0000, -65.659
1317.2000, -65.572
1317.4000, -65.592
1317.6000, -65.334
1317.8000, -65.150
1318.0000, -65.148
1318.2000, -65.374
1318.4000, -65.486
1318.6000, -65.415
1318.8000, -65.584
1319.0000, -65.663
1319.2000, -65.641
1319.4000, -65.707
1319.6000, -65.364
1319.8000, -65.221
1320.0000, -65.654
1320.2000, -65.506
1320.4000, -65.742
1320.6000, -65.932
1320.8000, -65.535
1321.0000, -65.548
1321.2000, -65.494
1321.4000, -65.697
1321.6000, -65.640
1321.8000, -65.556
1322.0000, -65.714
1322.2000, -65.999
1322.4000, -65.761
1322.6000, -65.610
1322.8000, -65.668
1323.0000, -65.544
1323.2000, -65.507
1323.4000, -65.553
1323.6000, -65.579
1323.8000, -65.508
1324.0000, -65.874
1324.2000, -66.262
1324.4000, -66.399
1324.6000, -66.286
1324.8000, -65.821
1325.0000, -65.570
1325.2000, -65.385
1325.4000, -65.117
1325.6000, -65.493
1325.8000, -65.683
1326.0000, -66.015
1326.2000, -66.435
1326.4000, -66.486
1326.6000, -66.443
1326.8000, -65.951
1327.0000, -65.935
1327.2000, -65.396
1327.4000, -65.345
1327.6000, -65.428
1327.8000, -65.692
1328.0000, -65.870
1328.2000, -66.499
1328.4000, -67.038
1328.6000, -66.807
1328.8000, -66.709
1329.0000, -66.438
1329.2000, -65.784
1329.4000, -65.337
1329.6000, -65.178
1329.8000, -65.475
1330.0000, -65.692
1330.2000, -66.372
1330.4000, -66.801
1330.6000, -67.346
1330.8000, -67.064
1331.0000, -66.849
1331.2000, -66.255
1331.4000, -65.823
1331.6000, -65.409
1331.8000, -65.153
1332.0000, -65.525
1332.2000, -66.376
1332.4000, -67.082
1332.6000, -67.413
1332.8000, -67.755
1333.0000, -67.364
1333.2000, -66.834
1333.4000, -65.770
1333.6000, -65.539
1333.8000, -65.071
1334.0000, -65.363
1334.2000, -65.549
1334.4000, -66.483
1334.6000, -67.095
1334.8000, -68.137
1335.0000, -68.224
1335.2000, -67.680
1335.4000, -66.953
1335.6000, -66.003
1335.8000, -65.471
1336.0000, -65.136
1336.2000, -65.240
1336.4000, -65.541
1336.6000, -66.295
1336.8000, -67.460
1337.0000, -68.479
1337.2000, -68.683
1337.4000, -67.936
1337.6000, -67.123
1337.8000, -66.122
1338.0000, -65.413
1338.2000, -65.128
1338.4000, -65.150
1338.6000, -65.705
1338.8000, -66.768
1339.0000, -67.552
1339.2000, -68.492
1339.4000, -69.124
1339.6000, -68.544
1339.8000, -67.419
1340.0000, -66.191
1340.2000, -65.438
1340.4000, -65.288
1340.6000, -65.136
1340.8000, -65.739
1341.0000, -66.416
1341.2000, -67.551
1341.4000, -68.833
1341.6000, -69.484
1341.8000, -69.275
1342.0000, -67.970
1342.2000, -66.570
1342.4000, -65.841
1342.6000, -65.102
1342.8000, -65.188
1343.0000, -65.455
1343.2000, -66.511
1343.4000, -67.876
1343.6000, -68.890
1343.8000, -70.224
1344.0000, -69.926
1344.2000, -68.745
1344.4000, -67.212
1344.6000, -66.089
1344.8000, -65.458
1345.0000, -65.211
1345.2000, -65.628
1345.4000, -65.893
1345.6000, -67.204
1345.8000, -68.848
1346.0000, -70.025
1346.2000, -70.528
1346.4000, -69.756
1346.6000, -68.311
1346.8000, -66.687
1347.0000, -65.831
1347.2000, -65.381
1347.4000, -65.329
1347.6000, -65.847
1347.8000, -66.718
1348.0000, -68.263
1348.2000, -69.724
1348.4000, -70.844
1348.6000, -70.926
1348.8000, -68.988
1349.0000, -67.401
1349.2000, -66.109
1349.4000, -65.474
1349.6000, -65.101
1349.8000, -65.653
1350.0000, -66.279
1350.2000, -67.732
1350.4000, -69.199
1350.6000, -70.775
1350.8000, -71.392
1351.0000, -70.570
1351.2000, -68.906
1351.4000, -67.613
1351.6000, -66.481
1351.8000, -65.748
1352.0000, -65.811
1352.2000, -66.024
1352.4000, -66.877
1352.6000, -68.127
1352.8000, -70.419
1353.0000, -71.425
1353.2000, -71.936
1353.4000, -70.803
1353.6000, -69.091
1353.8000, -67.419
1354.0000, -66.436
1354.2000, -66.055
1354.4000, -66.102
1354.6000, -66.762
1354.8000, -67.842
1355.0000, -68.795
1355.2000, -70.911
1355.4000, -72.594
1355.6000, -72.718
1355.8000, -71.062
1356.0000, -69.166
1356.2000, -67.624
1356.4000, -66.300
1356.6000, -66.141
1356.8000, -66.241
1357.0000, -66.568
1357.2000, -67.384
1357.4000, -69.179
1357.6000, -70.537
1357.8000, -72.176
1358.0000, -72.902
1358.2000, -71.500
1358.4000, -69.814
1358.6000, -68.001
1358.8000, -66.821
1359.0000, -66.568
1359.2000, -66.502
1359.4000, -67.139
1359.6000, -68.037
1359.8000, -69.406
1360.0000, -70.557
1360.2000, -72.187
1360.4000, -73.046
1360.6000, -73.301
1360.8000, -70.861
1361.0000, -69.074
1361.2000, -67.819
1361.4000, -67.245
1361.6000, -66.924
1361.8000, -67.550
1362.0000, -68.414
1362.2000, -69.469
1362.4000, -71.696
1362.6000, -73.841
1362.8000, -74.350
1363.0000, -72.960
1363.2000, -71.465
1363.4000, -69.239
1363.6000, -67.789
1363.8000, -67.129
1364.0000, -66.885
1364.2000, -67.128
1364.4000, -67.843
1364.6000, -68.937
1364.8000, -70.634
1365.0000, -72.591
1365.2000, -73.735
1365.4000, -73.587
1365.6000, -72.259
1365.8000, -70.392
1366.0000, -68.561
1366.2000, -67.700
1366.4000, -66.894
1366.6000, -66.554
1366.8000, -67.148
1367.0000, -68.096
1367.2000, -69.299
1367.4000, -71.161
1367.6000, -72.425
1367.8000, -74.763
1368.0000, -74.186
1368.2000, -72.778
1368.4000, -70.628
1368.6000, -68.978
1368.8000, -68.195
1369.0000, -67.479
1369.2000, -67.147
1369.4000, -67.348
1369.6000, -68.367
1369.8000, -69.430
1370.0000, -71.769
1370.2000, -73.093
1370.4000, -74.072
1370.6000, -73.752
1370.8000, -72.349
1371.0000, -70.791
1371.2000, -69.545
1371.4000, -68.307
1371.6000, -67.858
1371.8000, -68.079
1372.0000, -68.422
1372.2000, -69.282
1372.4000, -69.783
1372.6000, -71.403
1372.8000, -73.102
1373.0000, -73.997
1373.2000, -72.957
1373.4000, -72.185
1373.6000, -70.155
1373.8000, -69.143
1374.0000, -68.336
1374.2000, -67.923
1374.4000, -68.123
1374.6000, -68.510
1374.8000, -69.432
1375.0000, -70.659
1375.2000, -71.733
1375.4000, -73.173
1375.6000, -73.874
1375.8000, -73.327
1376.0000, -72.114
1376.2000, -70.953
1376.4000, -69.617
1376.6000, -69.382
1376.8000, -68.952
1377.0000, -68.844
1377.2000, -69.286
1377.4000, -69.658
1377.6000, -70.400
1377.8000, -71.462
1378.0000, -73.043
1378.2000, -74.668
1378.4000, -74.322
1378.6000, -73.017
1378.8000, -71.987
1379.0000, -70.408
1379.2000, -69.715
1379.4000, -69.307
1379.6000, -69.073
1379.8000, -69.471
1380.0000, -70.012
1380.2000, -71.470
1380.4000, -72.805
1380.6000, -74.684
1380.8000, -74.980
1381.0000, -75.397
1381.2000, -73.657
1381.4000, -72.955
1381.6000, -71.106
1381.8000, -70.606
1382.0000, -70.320
1382.2000, -70.413
1382.4000, -71.003
1382.6000, -71.765
1382.8000, -72.927
1383.0000, -73.369
1383.2000, -73.252
1383.4000, -73.985
1383.6000, -74.843
1383.8000, -73.901
1384.0000, -73.831
1384.2000, -72.253
1384.4000, -71.679
1384.6000, -71.315
1384.8000, -71.026
1385.0000, -71.100
1385.2000, -71.669
1385.4000, -72.099
1385.6000, -72.369
1385.8000, -72.922
1386.0000, -73.356
1386.2000, -73.981
1386.4000, -74.369
1386.6000, -73.844
1386.8000, -73.510
1387.0000, -72.468
1387.2000, -71.547
1387.4000, -71.824
1387.6000, -71.590
1387.8000, -71.872
1388.0000, -72.033
1388.2000, -72.917
1388.4000, -72.980
1388.6000, -73.585
1388.8000, -74.161
1389.0000, -74.268
1389.2000, -74.821
1389.4000, -74.403
1389.6000, -73.607
1389.8000, -72.948
1390.0000, -72.148
1390.2000, -72.073
1390.4000, -71.963
1390.6000, -71.916
1390.8000, -71.817
1391.0000, -72.588
1391.2000, -73.243
1391.4000, -73.441
1391.6000, -73.685
1391.8000, -74.355
1392.0000, -75.009
1392.2000, -75.365
1392.4000, -74.639
1392.6000, -74.362
1392.8000, -73.608
1393.0000, -72.774
1393.2000, -72.417
1393.4000, -72.836
1393.6000, -72.839
1393.8000, -73.226
1394.0000, -74.166
1394.2000, -74.525
1394.4000, -74.393
1394.6000, -75.156
1394.8000, -74.851
1395.0000, -75.167
1395.2000, -74.938
1395.4000, -74.330
1395.6000, -73.898
1395.8000, -73.875
1396.0000, -73.994
1396.2000, -73.939
1396.4000, -74.385
1396.6000, -74.952
1396.8000, -74.749
1397.0000, -74.627
1397.2000, -75.303
1397.4000, -74.496
1397.6000, -75.536
1397.8000, -74.175
1398.0000, -74.651
1398.2000, -74.036
1398.4000, -74.314
1398.6000, -74.169
1398.8000, -73.820
1399.0000, -74.063
1399.2000, -74.624
1399.4000, -75.517
1399.6000, -75.211
1399.8000, -75.208
1400.0000, -74.751
1400.2000, -75.265
1400.4000, -75.741
1400.6000, -75.482
1400.8000, -75.341
1401.0000, -74.533
1401.2000, -74.620
1401.4000, -74.570
1401.6000, -75.024
1401.8000, -74.901
1402.0000, -74.480
1402.2000, -74.533
1402.4000, -75.294
1402.6000, -74.993
1402.8000, -75.383
1403.0000, -75.054
1403.2000, -74.440
1403.4000, -74.275
1403.6000, -74.382
1403.8000, -74.355
1404.0000, -75.071
1404.2000, -74.613
1404.4000, -75.265
1404.6000, -76.493
1404.8000, -75.962
1405.0000, -76.172
1405.2000, -76.718
1405.4000, -75.703
1405.6000, -75.322
1405.8000, -75.087
1406.0000, -75.313
1406.2000, -75.191
1406.4000, -74.096
1406.6000, -75.482
1406.8000, -74.449
1407.0000, -74.997
1407.2000, -74.969
1407.4000, -74.937
1407.6000, -75.150
1407.8000, -75.130
1408.0000, -75.386
1408.2000, -75.018
1408.4000, -75.454
1408.6000, -75.922
1408.8000, -75.725
1409.0000, -74.972
1409.2000, -75.081
1409.4000, -74.877
1409.6000, -73.987
1409.8000, -74.834
1410.0000, -74.303
1410.2000, -74.183
1410.4000, -74.135
1410.6000, -74.863
1410.8000, -75.497
1411.0000, -75.633
1411.2000, -75.445
1411.4000, -75.532
1411.6000, -75.490
1411.8000, -75.405
1412.0000, -74.938
1412.2000, -74.340
1412.4000, -74.267
1412.6000, -74.122
1412.8000, -73.500
1413.0000, -73.636
1413.2000, -74.000
1413.4000, -73.877
1413.6000, -75.019
1413.8000, -74.962
1414.0000, -75.710
1414.2000, -76.558
1414.4000, -76.353
1414.6000, -76.472
1414.8000, -75.415
1415.0000, -75.589
1415.2000, -74.265
1415.4000, -74.457
1415.6000, -73.350
1415.8000, -73.181
1416.0000, -73.107
1416.2000, -73.331
1416.4000, -74.049
1416.6000, -74.625
1416.8000, -74.848
1417.0000, -75.302
1417.2000, -76.009
1417.4000, -76.935
1417.6000, -79.222
1417.8000, -77.657
1418.0000, -76.129
1418.2000, -75.048
1418.4000, -74.161
1418.6000, -73.957
1418.8000, -73.582
1419.0000, -73.435
1419.2000, -73.433
1419.4000, -73.033
1419.6000, -74.143
1419.8000, -74.171
1420.0000, -74.751
1420.2000, -76.395
1420.4000, -76.149
1420.6000, -76.718
1420.8000, -77.533
1421.0000, -78.652
1421.2000, -77.043
1421.4000, -75.591
1421.6000, -75.033
1421.8000, -73.803
1422.0000, -73.520
1422.2000, -72.877
1422.4000, -73.349
1422.6000, -73.041
1422.8000, -73.393
1423.0000, -73.920
1423.2000, -74.965
1423.4000, -76.130
1423.6000, -77.086
1423.8000, -76.902
1424.0000, -78.685
1424.2000, -77.760
1424.4000, -77.487
1424.6000, -75.814
1424.8000, -74.713
1425.0000, -73.869
1425.2000, -73.365
1425.4000, -72.737
1425.6000, -73.054
1425.8000, -72.856
1426.0000, -73.256
1426.2000, -74.652
1426.4000, -74.220
1426.6000, -75.212
1426.8000, -76.203
1427.0000, -79.633
1427.2000, -79.955
1427.4000, -79.285
1427.6000, -79.861
1427.8000, -77.241
1428.0000, -76.203
1428.2000, -75.431
1428.4000, -74.237
1428.6000, -73.809
1428.8000, -73.132
1429.0000, -72.543
1429.2000, -72.876
1429.4000, -73.055
1429.6000, -73.610
1429.8000, -74.455
1430.0000, -75.513
1430.2000, -76.368
1430.4000, -77.516
1430.6000, -79.030
1430.8000, -79.951
1431.0000, -80.062
1431.2000, -77.548
1431.4000, -76.320
1431.6000, -75.052
1431.8000, -74.068
1432.0000, -73.408
1432.2000, -73.503
1432.4000, -72.846
1432.6000, -73.369
1432.8000, -74.422
1433.0000, -73.869
1433.2000, -75.186
1433.4000, -75.740
1433.6000, -76.289
1433.8000, -77.547
1434.0000, -77.915
1434.2000, -81.431
1434.4000, -80.746
1434.6000, -77.328
1434.8000, -76.230
1435.0000, -75.258
1435.2000, -74.215
1435.4000, -74.111
1435.6000, -73.163
1435.8000, -73.118
1436.0000, -73.194
1436.2000, -72.791
1436.4000, -73.556
1436.6000, -73.901
1436.8000, -76.270
1437.0000, -77.470
1437.2000, -77.496
1437.4000, -78.687
1437.6000, -81.594
1437.8000, -83.945
1438.0000, -78.798
1438.2000, -77.231
1438.4000, -76.240
1438.6000, -74.638
1438.8000, -73.745
1439.0000, -73.060
1439.2000, -72.646
1439.4000, -73.122
1439.6000, -73.127
1439.8000, -73.560
1440.0000, -74.391
1440.2000, -74.545
1440.4000, -76.044
1440.6000, -77.452
1440.8000, -79.227
1441.0000, -80.546
1441.2000, -80.797
1441.4000, -82.632
1441.6000, -79.196
1441.8000, -77.709
1442.0000, -75.768
1442.2000, -74.783
1442.4000, -74.005
1442.6000, -73.690
1442.8000, -73.044
1443.0000, -73.342
1443.2000, -73.871
1443.4000, -73.881
1443.6000, -74.894
1443.8000, -75.573
1444.0000, -76.056
1444.2000, -79.205
1444.4000, -80.179
1444.6000, -80.927
1444.8000, -80.007
1445.0000, -82.561
1445.2000, -79.050
1445.4000, -78.809
1445.6000, -76.086
1445.8000, -75.499
1446.0000, -74.193
1446.2000, -73.604
1446.4000, -73.648
1446.6000, -73.700
1446.8000, -73.702
1447.0000, -73.601
1447.2000, -74.208
1447.4000, -75.429
1447.6000, -76.836
1447.8000, -77.095
1448.0000, -78.868
1448.2000, -80.800
1448.4000, -81.337
1448.6000, -80.423
1448.8000, -78.407
1449.0000, -78.328
1449.2000, -76.736
1449.4000, -75.715
1449.6000, -74.234
1449.8000, -73.774
1450.0000, -73.994
1450.2000, -73.961
1450.4000, -73.439
1450.6000, -73.993
1450.8000, -74.699
1451.0000, -75.208
1451.2000, -76.575
1451.4000, -78.757
1451.6000, -79.155
1451.8000, -81.016
1452.0000, -82.261
1452.2000, -80.655
1452.4000, -80.908
1452.6000, -80.225
1452.8000, -78.737
1453.0000, -76.511
1453.2000, -76.331
1453.4000, -74.647
1453.6000, -73.975
1453.8000, -73.227
1454.0000, -73.473
1454.2000, -74.098
1454.4000, -74.928
1454.6000, -75.168
1454.8000, -75.077
1455.0000, -76.138
1455.2000, -77.079
1455.4000, -78.240
1455.6000, -80.299
1455.8000, -81.612
1456.0000, -89.869
1456.2000, -79.594
1456.4000, -78.967
1456.6000, -78.532
1456.8000, -76.910
1457.0000, -75.751
1457.2000, -75.273
1457.4000, -74.583
1457.6000, -74.126
1457.8000, -74.074
1458.0000, -73.527
1458.2000, -74.490
1458.4000, -74.404
1458.6000, -75.531
1458.8000, -76.759
1459.0000, -77.832
1459.2000, -80.078
1459.4000, -79.992
1459.6000, -80.903
1459.8000, -80.817
1460.0000, -80.256
1460.2000, -78.808
1460.4000, -78.728
1460.6000, -77.026
1460.8000, -77.309
1461.0000, -75.646
1461.2000, -74.868
1461.4000, -75.284
1461.6000, -75.413
1461.8000, -74.391
1462.0000, -75.131
1462.2000, -74.723
1462.4000, -75.494
1462.6000, -75.896
1462.8000, -77.815
1463.0000, -79.030
1463.2000, -80.109
1463.4000, -81.406
1463.6000, -80.945
1463.8000, -81.348
1464.0000, -82.137
1464.2000, -80.054
1464.4000, -79.570
1464.6000, -78.103
1464.8000, -76.559
1465.0000, -77.191
1465.2000, -75.356
1465.4000, -75.276
1465.6000, -75.434
1465.8000, -75.650
1466.0000, -75.314
1466.2000, -75.561
1466.4000, -76.401
1466.6000, -77.163
1466.8000, -77.788
1467.0000, -77.823
1467.2000, -77.986
1467.4000, -80.539
1467.6000, -78.656
1467.8000, -80.887
1468.0000, -79.508
1468.2000, -79.310
1468.4000, -78.958
1468.6000, -78.530
1468.8000, -77.659
1469.0000, -75.650
1469.2000, -75.753
1469.4000, -75.320
1469.6000, -75.552
1469.8000, -75.520
1470.0000, -75.560
1470.2000, -75.173
1470.4000, -76.100
1470.6000, -77.156
1470.8000, -77.929
1471.0000, -78.001
1471.2000, -78.388
1471.4000, -81.483
1471.6000, -82.869
1471.8000, -80.770
1472.0000, -81.139
1472.2000, -80.386
1472.4000, -79.396
1472.6000, -79.110
1472.8000, -78.138
1473.0000, -76.198
1473.2000, -77.334
1473.4000, -76.258
1473.6000, -76.399
1473.8000, -76.276
1474.0000, -76.744
1474.2000, -76.285
1474.4000, -76.510
1474.6000, -77.264
1474.8000, -78.191
1475.0000, -78.073
1475.2000, -79.029
1475.4000, -78.084
1475.6000, -80.890
1475.8000, -81.605
1476.0000, -79.418
1476.2000, -78.761
1476.4000, -80.045
1476.6000, -79.132
1476.8000, -77.841
1477.0000, -78.438
1477.2000, -77.339
1477.4000, -77.950
1477.6000, -76.476
1477.8000, -76.034
1478.0000, -76.791
1478.2000, -75.877
1478.4000, -76.884
1478.6000, -76.695
1478.8000, -76.577
1479.0000, -76.895
1479.2000, -77.645
1479.4000, -78.494
1479.6000, -78.967
1479.8000, -79.038
1480.0000, -81.908
1480.2000, -78.609
1480.4000, -78.934
1480.6000, -78.997
1480.8000, -78.618
1481.0000, -77.651
1481.2000, -77.669
1481.4000, -78.938
1481.6000, -77.631
1481.8000, -77.143
1482.0000, -76.806
1482.2000, -77.160
1482.4000, -76.905
1482.6000, -77.604
1482.8000, -78.107
1483.0000, -77.601
1483.2000, -77.262
1483.4000, -78.530
1483.6000, -79.101
1483.8000, -78.920
1484.0000, -79.147
1484.2000, -79.236
1484.4000, -79.728
1484.6000, -79.365
1484.8000, -78.988
1485.0000, -79.480
1485.2000, -82.206
1485.4000, -78.673
1485.6000, -78.254
1485.8000, -77.668
1486.0000, -79.581
1486.2000, -77.084
1486.4000, -77.614
1486.6000, -78.129
1486.8000, -77.242
1487.0000, -77.750
1487.2000, -77.837
1487.4000, -79.624
1487.6000, -79.344
1487.8000, -78.069
1488.0000, -78.516
1488.2000, -80.166
1488.4000, -79.907
1488.6000, -78.651
1488.8000, -80.109
1489.0000, -83.737
1489.2000, -80.697
1489.4000, -79.364
1489.6000, -78.209
1489.8000, -78.650
1490.0000, -77.890
1490.2000, -78.426
1490.4000, -77.404
1490.6000, -77.781
1490.8000, -77.572
1491.0000, -77.414
1491.2000, -79.120
1491.4000, -78.294
1491.6000, -79.651
1491.8000, -79.232
1492.0000, -78.926
1492.2000, -76.622
1492.4000, -79.853
1492.6000, -79.696
1492.8000, -79.501
1493.0000, -79.274
1493.2000, -78.167
1493.4000, -78.562
1493.6000, -77.821
1493.8000, -79.230
1494.0000, -78.928
1494.2000, -78.603
1494.4000, -78.199
1494.6000, -77.705
1494.8000, -78.430
1495.0000, -77.410
1495.2000, -79.443
1495.4000, -79.362
1495.6000, -78.586
1495.8000, -77.960
1496.0000, -78.459
1496.2000, -78.825
1496.4000, -78.424
1496.6000, -78.525
1496.8000, -78.807
1497.0000, -79.098
1497.2000, -78.015
1497.4000, -81.289
1497.6000, -79.539
1497.8000, -79.498
1498.0000, -79.029
1498.2000, -78.224
1498.4000, -79.083
1498.6000, -78.159
1498.8000, -79.176
1499.0000, -78.332
1499.2000, -81.710
1499.4000, -78.963
1499.6000, -77.696
1499.8000, -78.637
1500.0000, -78.188
1500.2000, -79.067
1500.4000, -78.421
1500.6000, -79.459
1500.8000, -82.106
1501.0000, -87.149
1501.2000, -77.835
1501.4000, -81.338
1501.6000, -81.487
1501.8000, -77.886
1502.0000, -79.163
1502.2000, -79.826
1502.4000, -80.135
1502.6000, -78.065
1502.8000, -79.676
1503.0000, -77.587
1503.2000, -80.785
1503.4000, -77.162
1503.6000, -79.026
1503.8000, -79.053
1504.0000, -79.210
1504.2000, -79.667
1504.4000, -78.432
1504.6000, -79.839
1504.8000, -78.156
1505.0000, -80.641
1505.2000, -80.788
1505.4000, -79.057
1505.6000, -79.788
1505.8000, -82.501
1506.0000, -81.428
1506.2000, -79.782
1506.4000, -80.637
1506.6000, -81.364
1506.8000, -78.960
1507.0000, -79.483
1507.2000, -79.123
1507.4000, -79.551
1507.6000, -79.385
1507.8000, -78.128
1508.0000, -78.553
1508.2000, -78.488
1508.4000, -78.885
1508.6000, -77.811
1508.8000, -78.955
1509.0000, -79.014
1509.2000, -81.269
1509.4000, -79.371
1509.6000, -78.370
1509.8000, -78.261
1510.0000, -80.353
1510.2000, -82.589
1510.4000, -79.028
1510.6000, -81.067
1510.8000, -80.276
1511.0000, -80.182
1511.2000, -79.040
1511.4000, -78.732
1511.6000, -82.386
1511.8000, -78.586
1512.0000, -79.149
1512.2000, -79.508
1512.4000, -77.986
1512.6000, -79.864
1512.8000, -79.622
1513.0000, -79.914
1513.2000, -79.036
1513.4000, -78.818
1513.6000, -78.929
1513.8000, -79.003
1514.0000, -80.125
1514.2000, -80.535
1514.4000, -79.739
1514.6000, -81.927
1514.8000, -82.900
1515.0000, -80.384
1515.2000, -84.288
1515.4000, -81.374
1515.6000, -82.578
1515.8000, -82.000
1516.0000, -80.671
1516.2000, -80.080
1516.4000, -82.428
1516.6000, -80.020
1516.8000, -79.984
1517.0000, -80.673
1517.2000, -79.355
1517.4000, -77.907
1517.6000, -80.137
1517.8000, -78.362
1518.0000, -78.540
1518.2000, -78.959
1518.4000, -79.190
1518.6000, -78.460
1518.8000, -80.447
1519.0000, -77.362
1519.2000, -79.671
1519.4000, -81.522
1519.6000, -80.532
1519.8000, -79.969
1520.0000, -82.108
1520.2000, -82.353
1520.4000, -83.433
1520.6000, -85.763
1520.8000, -82.150
1521.0000, -81.294
1521.2000, -80.859
1521.4000, -80.578
1521.6000, -80.732
1521.8000, -80.344
1522.0000, -78.606
1522.2000, -78.448
1522.4000, -77.144
1522.6000, -79.205
1522.8000, -77.506
1523.0000, -78.842
1523.2000, -79.149
1523.4000, -80.061
1523.6000, -80.000
1523.8000, -80.714
1524.0000, -79.475
1524.2000, -78.909
1524.4000, -80.411
1524.6000, -81.629
1524.8000, -81.181
1525.0000, -88.206
1525.2000,-210.000
1525.4000,-210.000
1525.6000, -89.993
1525.8000, -85.404
1526.0000, -85.086
1526.2000, -82.552
1526.4000, -79.725
1526.6000, -79.756
1526.8000, -79.335
1527.0000, -79.981
1527.2000, -79.853
1527.4000, -78.246
1527.6000, -79.486
1527.8000, -79.008
1528.0000, -78.484
1528.2000, -77.690
1528.4000, -80.960
1528.6000, -79.873
1528.8000, -82.423
1529.0000, -80.125
1529.2000, -81.731
1529.4000, -80.660
1529.6000, -81.482
1529.8000, -82.268
1530.0000, -83.698
1530.2000, -82.204
1530.4000, -85.470
1530.6000, -85.082
1530.8000, -83.326
1531.0000, -83.643
1531.2000, -82.889
1531.4000, -84.680
1531.6000, -82.779
1531.8000, -80.828
1532.0000, -80.102
1532.2000, -80.091
1532.4000, -81.768
1532.6000, -80.538
1532.8000, -81.505
1533.0000, -80.030
1533.2000, -79.445
1533.4000, -79.032
1533.6000, -79.434
1533.8000, -78.466
1534.0000, -79.346
1534.2000, -80.811
1534.4000, -79.022
1534.6000, -83.340
1534.8000, -84.142
1535.0000, -80.425
1535.2000, -85.798
1535.4000, -82.418
1535.6000, -83.409
1535.8000, -84.158
1536.0000, -85.222
1536.2000,-210.000
1536.4000, -83.431
1536.6000, -84.128
1536.8000, -84.841
1537.0000, -87.223
1537.2000, -86.286
1537.4000, -80.511
1537.6000, -80.430
1537.8000, -80.397
1538.0000, -77.208
1538.2000, -79.352
1538.4000, -80.057
1538.6000, -80.018
1538.8000, -79.823
1539.0000, -80.541
1539.2000, -80.797
1539.4000, -77.857
1539.6000, -79.041
1539.8000, -80.889
1540.0000, -80.086
1540.2000, -87.063
1540.4000, -89.180
1540.6000, -81.355
1540.8000, -81.431
1541.0000, -94.134
1541.2000, -83.525
1541.4000, -83.709
1541.6000, -90.353
1541.8000,-210.000
1542.0000,-210.000
1542.2000, -83.729
1542.4000, -82.629
1542.6000, -81.769
1542.8000, -83.247
1543.0000, -79.571
1543.2000, -82.100
1543.4000, -78.806
1543.6000, -81.186
1543.8000, -80.984
1544.0000, -80.101
1544.2000, -79.799
1544.4000, -79.838
1544.6000, -79.454
1544.8000, -78.726
1545.0000, -80.614
1545.2000, -81.838
1545.4000, -82.180
1545.6000, -80.810
1545.8000, -80.522
1546.0000, -85.463
1546.2000, -88.808
1546.4000, -87.066
1546.6000,-210.000
1546.8000, -87.429
1547.0000, -86.107
1547.2000, -92.139
1547.4000, -81.707
1547.6000, -83.718
1547.8000, -81.719
1548.0000, -84.452
1548.2000, -83.424
1548.4000, -89.342
1548.6000, -82.778
1548.8000, -81.895
1549.0000, -81.562
1549.2000, -82.152
1549.4000, -78.700
1549.6000, -80.347
1549.8000, -82.672
1550.0000, -78.578
1550.2000, -81.569
1550.4000, -78.745
1550.6000, -79.087
1550.8000, -80.924
1551.0000, -82.234
1551.2000, -84.463
1551.4000, -81.500
1551.6000, -83.064
1551.8000, -85.667
1552.0000, -81.520
1552.2000, -83.067
1552.4000,-210.000
1552.6000, -83.876
1552.8000, -86.033
1553.0000, -90.999
1553.2000,-210.000
1553.4000, -86.343
1553.6000,-210.000
1553.8000, -85.516
1554.0000, -84.207
1554.2000, -83.042
1554.4000, -80.950
1554.6000, -80.619
1554.8000, -80.728
1555.0000, -82.597
1555.2000, -82.096
1555.4000, -81.016
1555.6000, -79.170
1555.8000, -79.731
1556.0000, -81.556
1556.2000, -77.800
1556.4000, -80.771
1556.6000, -81.875
1556.8000, -82.311
1557.0000, -81.542
1557.2000, -85.057
1557.4000, -86.109
1557.6000, -81.980
1557.8000, -87.957
1558.0000,-210.000
1558.2000, -82.747
1558.4000, -83.507
1558.6000, -84.739
1558.8000, -89.319
1559.0000, -85.349
1559.2000, -86.785
1559.4000, -83.669
1559.6000, -82.766
1559.8000, -84.665
1560.0000, -85.599
1560.2000, -82.757
1560.4000, -79.723
1560.6000, -81.037
1560.8000, -79.301
1561.0000, -83.281
1561.2000, -80.709
1561.4000, -79.493
1561.6000, -81.009
1561.8000, -80.148
1562.0000, -80.411
1562.2000, -81.700
1562.4000, -80.780
1562.6000, -80.146
1562.8000, -83.899
1563.0000, -83.056
1563.2000, -82.863
1563.4000,-210.000
1563.6000, -82.599
1563.8000, -86.470
1564.0000, -83.190
1564.2000, -82.359
1564.4000,-210.000
1564.6000, -88.872
1564.8000, -83.694
1565.0000,-210.000
1565.2000, -86.237
1565.4000, -83.895
1565.6000,-106.709
1565.8000,-210.000
1566.0000, -83.560
1566.2000, -83.154
1566.4000, -84.931
1566.6000, -83.560
1566.8000, -84.371
1567.0000, -80.384
1567.2000, -80.420
1567.4000, -81.501
1567.6000, -80.934
1567.8000, -82.902
1568.0000, -80.705
1568.2000, -80.710
1568.4000, -81.438
1568.6000, -83.036
1568.8000, -82.480
1569.0000, -82.705
1569.2000, -80.508
1569.4000, -86.737
1569.6000, -95.299
1569.8000, -87.509
1570.0000,-210.000
1570.2000, -87.886
1570.4000, -81.564
1570.6000, -85.046
1570.8000, -89.630
1571.0000,-210.000
1571.2000, -83.410
1571.4000, -82.723
1571.6000, -81.312
1571.8000, -82.353
1572.0000, -90.232
1572.2000, -83.600
1572.4000, -80.582
1572.6000, -80.893
1572.8000, -80.375
1573.0000, -82.061
1573.2000, -80.414
1573.4000, -82.590
1573.6000, -82.351
1573.8000, -81.383
1574.0000, -81.188
1574.2000, -80.870
1574.4000, -81.148
1574.6000, -82.710
1574.8000, -80.197
1575.0000, -81.785
1575.2000, -80.733
1575.4000, -82.245
1575.6000, -82.281
1575.8000, -85.124
1576.0000, -86.497
1576.2000, -89.707
1576.4000,-210.000
1576.6000,-210.000
1576.8000,-210.000
1577.0000, -87.123
1577.2000, -83.348
1577.4000,-210.000
1577.6000,-210.000
1577.8000,-100.055
1578.0000,-210.000
1578.2000,-105.797
1578.4000, -83.888
1578.6000, -86.171
1578.8000, -84.625
1579.0000, -80.761
1579.2000, -83.714
1579.4000, -85.357
1579.6000, -81.928
1579.8000, -85.090
1580.0000, -80.932
1580.2000, -81.291
1580.4000, -81.725
1580.6000, -82.359
1580.8000, -82.265
1581.0000, -81.713
1581.2000, -84.125
1581.4000, -84.740
1581.6000, -82.311
1581.8000, -80.111
1582.0000, -82.092
1582.2000, -85.808
1582.4000, -87.165
1582.6000,-210.000
1582.8000, -84.047
1583.0000, -82.616
1583.2000,-210.000
1583.4000,-210.000
1583.6000, -83.494
1583.8000, -89.069
1584.0000, -92.196
1584.2000, -87.800
1584.4000, -88.938
1584.6000, -83.412
1584.8000, -83.762
1585.0000, -85.068
1585.2000, -79.881
1585.4000, -81.349
1585.6000, -83.302
1585.8000, -81.906
1586.0000, -82.984
1586.2000, -81.433
1586.4000, -81.673
1586.6000, -83.991
1586.8000, -88.070
1587.0000, -88.779
1587.2000, -82.437
1587.4000, -82.165
1587.6000, -91.919
1587.8000, -82.471
1588.0000, -86.273
1588.2000, -81.860
1588.4000,-210.000
1588.6000, -84.232
1588.8000, -84.237
1589.0000, -95.728
1589.2000, -84.531
1589.4000, -87.117
1589.6000, -86.101
1589.8000, -81.098
1590.0000,-210.000
1590.2000, -95.062
1590.4000, -90.010
1590.6000, -89.190
1590.8000, -86.823
1591.0000, -84.618
1591.2000, -96.808
1591.4000, -83.358
1591.6000, -88.293
1591.8000, -88.734
1592.0000, -82.360
1592.2000, -82.420
1592.4000, -83.783
1592.6000, -84.107
1592.8000, -88.568
1593.0000, -91.203
1593.2000, -82.671
1593.4000, -81.924
1593.6000, -88.830
1593.8000, -83.388
1594.0000, -89.075
1594.2000, -82.135
1594.4000, -83.727
1594.6000,-210.000
1594.8000, -85.960
1595.0000, -83.492
1595.2000,-210.000
1595.4000, -84.578
1595.6000, -87.623
1595.8000, -85.177
1596.0000, -84.576
1596.2000, -86.826
1596.4000, -89.436
1596.6000, -88.980
1596.8000, -84.932
1597.0000, -85.258
1597.2000, -95.278
1597.4000, -84.223
1597.6000, -81.270
1597.8000,-210.000
1598.0000, -84.117
1598.2000, -86.194
1598.4000, -83.165
1598.6000, -81.783
1598.8000, -80.381
1599.0000, -83.871
1599.2000, -86.907
1599.4000, -85.061
1599.6000, -84.846
1599.8000, -83.016
1600.0000, -84.990
1600.2000, -81.648
1600.4000, -87.661
1600.6000, -85.059
1600.8000,-210.000
1601.0000, -83.451
1601.2000, -85.592
1601.4000, -83.735
1601.6000,-210.000
1601.8000, -88.490
1602.0000, -85.771
1602.2000,-101.605
1602.4000,-210.000
1602.6000,-210.000
1602.8000, -87.826
1603.0000, -90.742
1603.2000, -85.724
1603.4000, -87.111
1603.6000,-210.000
1603.8000, -82.628
1604.0000,-210.000
1604.2000, -86.444
1604.4000, -89.411
1604.6000, -81.851
1604.8000, -84.743
1605.0000, -83.038
1605.2000, -89.344
1605.4000,-210.000
1605.6000, -83.312
1605.8000, -82.236
1606.0000, -84.360
1606.2000, -82.287
1606.4000, -85.422
1606.6000, -89.001
1606.8000,-210.000
1607.0000,-210.000
1607.2000, -82.246
1607.4000, -93.812
1607.6000,-210.000
1607.8000, -87.376
1608.0000, -84.730
1608.2000, -82.761
1608.4000,-210.000
1608.6000, -85.244
1608.8000, -85.251
1609.0000,-210.000
1609.2000, -88.561
1609.4000,-210.000
1609.6000, -90.003
1609.8000, -85.061
1610.0000, -87.857
1610.2000, -83.498
1610.4000, -81.976
1610.6000, -95.384
1610.8000, -83.906
1611.0000,-210.000
1611.2000, -82.305
1611.4000, -85.539
1611.6000, -82.432
1611.8000,-210.000
1612.0000, -87.013
1612.2000, -84.707
1612.4000, -82.664
1612.6000, -85.063
1612.8000, -81.344
1613.0000, -87.357
1613.2000, -81.287
1613.4000, -84.137
1613.6000, -87.980
1613.8000,-210.000
1614.0000, -86.008
1614.2000, -85.639
1614.4000, -81.743
1614.6000, -87.868
1614.8000,-210.000
1615.0000, -86.296
1615.2000, -85.798
1615.4000, -84.825
1615.6000,-210.000
1615.8000,-210.000
1616.0000,-210.000
1616.2000, -89.105
1616.4000, -84.295
1616.6000,-210.000
1616.8000, -84.780
1617.0000, -87.568
1617.2000, -88.515
1617.4000,-210.000
1617.6000,-210.000
1617.8000, -82.928
1618.0000,-210.000
1618.2000,-210.000
1618.4000, -85.711
1618.6000, -83.902
1618.8000, -94.169
1619.0000,-210.000
1619.2000,-210.000
1619.4000, -91.762
1619.6000,-210.000
1619.8000, -96.660
1620.0000,-210.000
1620.2000, -81.826
1620.4000, -83.735
1620.6000, -82.110
1620.8000, -89.302
1621.0000, -87.224
1621.2000,-210.000
1621.4000,-210.000
1621.6000, -88.320
1621.8000,-210.000
1622.0000,-210.000
1622.2000, -86.262
1622.4000, -84.883
1622.6000, -89.846
1622.8000,-210.000
1623.0000, -90.165
1623.2000,-210.000
1623.4000,-210.000
1623.6000, -86.752
1623.8000, -89.963
1624.0000, -85.748
1624.2000, -81.667
1624.4000, -85.214
1624.6000, -81.812
1624.8000, -87.719
1625.0000, -84.691
1625.2000, -83.288
1625.4000,-210.000
1625.6000, -84.924
1625.8000, -84.614
1626.0000, -88.588
1626.2000, -85.273
1626.4000, -83.410
1626.6000, -96.685
1626.8000, -85.574
1627.0000, -87.839
1627.2000,-210.000
1627.4000,-210.000
1627.6000, -87.257
1627.8000, -91.964
1628.0000, -95.865
1628.2000, -85.491
1628.4000, -93.092
1628.6000, -85.648
1628.8000, -82.700
1629.0000, -86.204
1629.2000,-210.000
1629.4000, -87.272
1629.6000,-210.000
1629.8000, -85.854
1630.0000,-210.000
1630.2000, -85.283
1630.4000, -82.036
1630.6000,-210.000
1630.8000, -81.435
1631.0000, -88.793
1631.2000, -80.926
1631.4000, -93.116
1631.6000, -84.537
1631.8000, -84.751
1632.0000, -82.156
1632.2000, -81.391
1632.4000,-210.000
1632.6000, -89.295
1632.8000, -90.443
1633.0000, -84.902
1633.2000,-210.000
1633.4000, -87.073
1633.6000, -88.782
1633.8000,-210.000
1634.0000, -84.056
1634.2000, -87.062
1634.4000, -99.069
1634.6000,-210.000
1634.8000, -90.509
1635.0000, -84.477
1635.2000,-210.000
1635.4000,-210.000
1635.6000, -85.039
1635.8000, -90.294
1636.0000, -82.172
1636.2000,-210.000
1636.4000, -87.496
1636.6000,-210.000
1636.8000,-210.000
1637.0000,-210.000
1637.2000, -82.320
1637.4000,-210.000
1637.6000, -85.510
1637.8000, -87.408
1638.0000,-210.000
1638.2000,-210.000
1638.4000,-210.000
1638.6000, -85.815
1638.8000,-210.000
1639.0000, -85.765
1639.2000, -82.891
1639.4000, -87.757
1639.6000, -83.949
1639.8000, -90.489
1640.0000,-210.000
1640.2000, -89.212
1640.4000, -87.082
1640.6000, -95.676
1640.8000, -90.536
1641.0000,-210.000
1641.2000, -91.191
1641.4000,-210.000
1641.6000, -85.181
1641.8000, -87.296
1642.0000,-210.000
1642.2000, -88.938
1642.4000,-210.000
1642.6000, -89.879
1642.8000,-210.000
1643.0000,-210.000
1643.2000, -86.696
1643.4000,-210.000
1643.6000, -86.099
1643.8000,-210.000
1644.0000,-210.000
1644.2000, -89.777
1644.4000, -88.870
1644.6000, -88.245
1644.8000,-210.000
1645.0000, -85.107
1645.2000,-210.000
1645.4000, -86.312
1645.6000, -84.517
1645.8000, -87.320
1646.0000,-210.000
1646.2000,-210.000
1646.4000, -82.543
1646.6000,-210.000
1646.8000, -85.154
1647.0000, -95.814
1647.2000, -87.856
1647.4000, -88.501
1647.6000, -83.391
1647.8000, -87.060
1648.0000, -85.167
1648.2000,-210.000
1648.4000, -92.821
1648.6000, -96.072
1648.8000, -93.625
1649.0000, -87.167
1649.2000, -85.633
1649.4000,-210.000
1649.6000,-210.000
1649.8000,-210.000
1650.0000,-210.000
1650.2000, -88.866
1650.4000,-210.000
1650.6000,-210.000
1650.8000,-210.000
1651.0000, -85.726
1651.2000,-210.000
1651.4000, -85.733
1651.6000,-210.000
1651.8000,-210.000
1652.0000,-210.000
1652.2000, -88.447
1652.4000,-210.000
1652.6000, -83.432
1652.8000, -86.362
1653.0000, -89.281
1653.2000, -83.376
1653.4000,-210.000
1653.6000,-210.000
1653.8000, -85.160
1654.0000, -83.310
1654.2000,-210.000
1654.4000, -84.047
1654.6000, -87.307
1654.8000,-210.000
1655.0000, -89.029
1655.2000,-210.000
1655.4000, -90.334
1655.6000,-210.000
1655.8000, -99.743
1656.0000,-210.000
1656.2000, -82.517
1656.4000, -97.875
1656.6000, -86.215
1656.8000, -91.583
1657.0000,-210.000
1657.2000,-210.000
1657.4000,-210.000
1657.6000,-210.000
1657.8000,-210.000
1658.0000,-210.000
1658.2000,-210.000
1658.4000, -84.427
1658.6000, -84.033
1658.8000,-103.943
1659.0000, -85.851
1659.2000, -87.149
1659.4000, -85.343
1659.6000, -88.295
1659.8000,-210.000
1660.0000,-210.000
1660.2000, -85.820
1660.4000,-210.000
1660.6000,-210.000
1660.8000, -86.142
1661.0000,-210.000
1661.2000,-210.000
1661.4000,-210.000
1661.6000,-210.000
1661.8000, -81.416
1662.0000,-210.000
1662.2000, -83.230
1662.4000,-210.000
1662.6000,-210.000
1662.8000,-210.000
1663.0000,-210.000
1663.2000,-210.000
1663.4000,-104.827
1663.6000,-210.000
1663.8000,-210.000
1664.0000,-210.000
1664.2000, -82.609
1664.4000,-210.000
1664.6000, -80.516
1664.8000,-210.000
1665.0000, -87.756
1665.2000,-210.000
1665.4000, -85.017
1665.6000,-210.000
1665.8000,-210.000
1666.0000,-210.000
1666.2000, -90.454
1666.4000, -89.864
1666.6000, -87.896
1666.8000,-210.000
1667.0000,-210.000
1667.2000,-210.000
1667.4000,-210.000
1667.6000, -81.927
1667.8000, -83.172
1668.0000, -84.498
1668.2000,-210.000
1668.4000, -78.055
1668.6000,-210.000
1668.8000, -83.008
1669.0000, -81.420
1669.2000, -82.759
1669.4000,-210.000
1669.6000,-210.000
1669.8000, -81.085
1670.0000, -78.812
1670.2000,-210.000
1670.4000,-210.000
1670.6000,-210.000
1670.8000,-210.000
1671.0000,-210.000
1671.2000, -89.102
1671.4000, -87.660
1671.6000,-210.000
1671.8000, -85.240
1672.0000,-210.000
1672.2000, -80.672
1672.4000,-210.000
1672.6000, -82.755
1672.8000,-210.000
1673.0000,-210.000
1673.2000,-210.000
1673.4000,-210.000
1673.6000, -80.865
1673.8000, -82.251
1674.0000, -80.910
1674.2000, -79.926
1674.4000,-210.000
1674.6000,-210.000
1674.8000,-210.000
1675.0000, -78.010
1675.2000,-210.000
1675.4000, -90.680
1675.6000,-210.000
1675.8000, -97.729
1676.0000,-210.000
1676.2000, -83.262
1676.4000, -84.025
1676.6000, -82.932
1676.8000, -80.445
1677.0000, -78.278
1677.2000,-210.000
1677.4000, -83.927
1677.6000, -84.406
1677.8000,-210.000
1678.0000, -85.988
1678.2000,-210.000
1678.4000,-210.000
1678.6000, -80.970
1678.8000, -76.858
1679.0000,-210.000
1679.2000, -83.746
1679.4000, -80.710
1679.6000, -85.745
1679.8000,-210.000
1680.0000, -83.433
1680.2000,-210.000
1680.4000, -77.960
1680.6000,-210.000
1680.8000,-210.000
1681.0000, -76.962
1681.2000, -82.124
1681.4000, -95.870
1681.6000,-210.000
1681.8000,-210.000
1682.0000, -85.584
1682.2000, -77.146
1682.4000,-210.000
1682.6000, -75.534
1682.8000,-210.000
1683.0000,-210.000
1683.2000,-210.000
1683.4000,-210.000
1683.6000, -74.791
1683.8000,-210.000
1684.0000, -79.265
1684.2000,-210.000
1684.4000, -87.187
1684.6000,-210.000
1684.8000, -78.528
1685.0000, -80.878
1685.2000, -84.890
1685.4000, -85.959
1685.6000,-210.000
1685.8000,-210.000
1686.0000,-210.000
1686.2000, -80.155
1686.4000,-210.000
1686.6000, -81.077
1686.8000,-210.000
1687.0000, -83.443
1687.2000, -86.427
1687.4000,-210.000
1687.6000,-210.000
1687.8000,-210.000
1688.0000, -78.246
1688.2000,-210.000
1688.4000, -78.847
1688.6000, -76.556
1688.8000, -81.452
1689.0000, -76.734
1689.2000, -74.356
1689.4000, -88.875
1689.6000,-210.000
1689.8000,-210.000
1690.0000,-210.000
1690.2000,-210.000
1690.4000,-210.000
1690.6000,-210.000
1690.8000, -92.860
1691.0000, -78.193
1691.2000,-210.000
1691.4000, -85.864
1691.6000,-210.000
1691.8000,-210.000
1692.0000, -82.204
1692.2000, -77.655
1692.4000, -79.065
1692.6000, -86.934
1692.8000, -75.146
1693.0000,-210.000
1693.2000, -77.157
1693.4000, -74.689
1693.6000, -84.752
1693.8000,-210.000
1694.0000,-210.000
1694.2000, -80.257
1694.4000,-210.000
1694.6000,-210.000
1694.8000,-210.000
1695.0000, -81.859
1695.2000,-210.000
1695.4000,-210.000
1695.6000,-210.000
1695.8000,-210.000
1696.0000,-210.000
1696.2000,-210.000
1696.4000,-210.000
1696.6000,-210.000
1696.8000,-210.000
1697.0000,-210.000
1697.2000,-210.000
1697.4000, -86.649
1697.6000, -83.210
1697.8000, -81.219
1698.0000, -87.663
1698.2000,-210.000
1698.4000,-210.000
1698.6000, -76.440
1698.8000,-210.000
1699.0000, -76.780
1699.2000,-210.000
1699.4000,-210.000
1699.6000,-210.000
1699.8000, -93.058
1700.0000,-210.000
