74CSV  	
// AQ6374 OPTICAL SPECTRUM ANALYZER //                  
35
"CTRWL", 807.000000
"SPAN", 514.000000
"START WL", 550.000000
"STOP WL",1064.000000
"WLFREQ", 0
"REFL",-49.6
"LSCL", 2.9
"RESLN",1.000
"AVG",   1
"SMPLAUTO",      1
"SMPL",       2571
"SMPLINTVL",0.2000
"HIGH1"
"MEAS"
"LSUNT",0
"NMSKH","OFF"
"RESCOR",0
"SMOOTH",0
"MEASWL",1
"SWPSPD",0
"MODELNAME","AQ6374"
"CHGPT",        102
"RESCAL0_0",       9996
"RESCAL0_1",       -866
"RESCAL0_2",    1341521
"RESCAL1_0",      10053
"RESCAL1_1",          0
"RESCAL1_2",          0
"CORESIZE", 0






"[TRACE DATA]"
 550.0000, -73.622
 550.2000,-210.000
 550.4000, -71.652
 550.6000, -80.229
 550.8000, -76.179
 551.0000, -72.409
 551.2000, -74.727
 551.4000, -71.942
 551.6000,-210.000
 551.8000, -72.008
 552.0000, -69.444
 552.2000,-210.000
 552.4000, -70.099
 552.6000,-210.000
 552.8000, -71.158
 553.0000, -70.549
 553.2000,-210.000
 553.4000,-210.000
 553.6000,-210.000
 553.8000, -73.561
 554.0000,-210.000
 554.2000, -68.323
 554.4000, -68.003
 554.6000, -71.926
 554.8000,-210.000
 555.0000, -67.810
 555.2000, -72.269
 555.4000,-210.000
 555.6000, -67.434
 555.8000, -67.781
 556.0000, -75.284
 556.2000, -71.608
 556.4000, -77.744
 556.6000, -68.595
 556.8000, -67.704
 557.0000,-210.000
 557.2000, -67.559
 557.4000, -67.056
 557.6000, -75.477
 557.8000, -77.285
 558.0000, -70.417
 558.2000,-210.000
 558.4000,-210.000
 558.6000,-210.000
 558.8000,-210.000
 559.0000, -68.331
 559.2000, -65.950
 559.4000, -70.179
 559.6000,-210.000
 559.8000, -74.512
 560.0000, -75.000
 560.2000, -68.260
 560.4000, -67.000
 560.6000, -72.133
 560.8000,-210.000
 561.0000, -70.004
 561.2000, -71.076
 561.4000, -70.113
 561.6000, -67.739
 561.8000, -71.415
 562.0000,-210.000
 562.2000, -66.345
 562.4000, -71.362
 562.6000, -65.646
 562.8000, -70.326
 563.0000, -70.413
 563.2000, -70.217
 563.4000, -68.206
 563.6000, -68.064
 563.8000, -75.801
 564.0000, -75.170
 564.2000, -72.279
 564.4000, -68.987
 564.6000, -72.222
 564.8000, -69.847
 565.0000, -73.679
 565.2000, -73.201
 565.4000, -68.627
 565.6000,-210.000
 565.8000, -68.266
 566.0000, -72.553
 566.2000, -88.563
 566.4000, -69.139
 566.6000, -68.261
 566.8000, -69.043
 567.0000, -66.581
 567.2000, -72.267
 567.4000, -70.528
 567.6000, -70.338
 567.8000, -72.795
 568.0000, -69.536
 568.2000, -75.165
 568.4000, -67.944
 568.6000, -72.769
 568.8000, -69.550
 569.0000, -67.396
 569.2000, -68.142
 569.4000, -68.472
 569.6000, -70.314
 569.8000, -66.973
 570.0000, -70.337
 570.2000, -69.187
 570.4000, -68.104
 570.6000, -68.130
 570.8000, -67.048
 571.0000, -67.713
 571.2000, -69.020
 571.4000, -67.963
 571.6000, -67.025
 571.8000, -68.552
 572.0000, -68.171
 572.2000, -67.626
 572.4000, -69.524
 572.6000, -69.574
 572.8000, -68.195
 573.0000, -66.691
 573.2000, -65.739
 573.4000, -67.582
 573.6000, -66.545
 573.8000, -66.451
 574.0000, -69.057
 574.2000, -65.309
 574.4000, -66.465
 574.6000, -65.380
 574.8000, -66.429
 575.0000, -67.854
 575.2000, -65.369
 575.4000, -66.345
 575.6000, -67.872
 575.8000, -67.578
 576.0000, -66.341
 576.2000, -66.070
 576.4000, -67.913
 576.6000, -67.818
 576.8000, -65.890
 577.0000, -66.581
 577.2000, -65.533
 577.4000, -65.989
 577.6000, -65.166
 577.8000, -66.811
 578.0000, -64.393
 578.2000, -67.023
 578.4000, -66.389
 578.6000, -64.843
 578.8000, -65.559
 579.0000, -64.263
 579.2000, -66.695
 579.4000, -64.640
 579.6000, -65.216
 579.8000, -65.073
 580.0000, -65.669
 580.2000, -65.381
 580.4000, -66.231
 580.6000, -65.883
 580.8000, -64.244
 581.0000, -64.024
 581.2000, -66.292
 581.4000, -65.199
 581.6000, -64.568
 581.8000, -65.965
 582.0000, -64.547
 582.2000, -65.211
 582.4000, -64.698
 582.6000, -63.987
 582.8000, -64.779
 583.0000, -64.120
 583.2000, -63.793
 583.4000, -64.280
 583.6000, -64.463
 583.8000, -63.961
 584.0000, -64.167
 584.2000, -64.063
 584.4000, -64.259
 584.6000, -63.547
 584.8000, -64.223
 585.0000, -64.129
 585.2000, -64.059
 585.4000, -63.820
 585.6000, -63.428
 585.8000, -63.378
 586.0000, -63.750
 586.2000, -63.504
 586.4000, -63.134
 586.6000, -63.225
 586.8000, -63.624
 587.0000, -63.263
 587.2000, -63.789
 587.4000, -62.885
 587.6000, -62.533
 587.8000, -63.210
 588.0000, -62.279
 588.2000, -63.224
 588.4000, -62.877
 588.6000, -63.088
 588.8000, -62.601
 589.0000, -62.929
 589.2000, -62.529
 589.4000, -63.122
 589.6000, -62.963
 589.8000, -62.569
 590.0000, -62.463
 590.2000, -62.363
 590.4000, -62.172
 590.6000, -62.019
 590.8000, -61.732
 591.0000, -61.943
 591.2000, -61.459
 591.4000, -61.895
 591.6000, -61.833
 591.8000, -61.695
 592.0000, -61.779
 592.2000, -62.005
 592.4000, -62.030
 592.6000, -61.814
 592.8000, -62.198
 593.0000, -61.591
 593.2000, -61.536
 593.4000, -61.957
 593.6000, -61.795
 593.8000, -61.504
 594.0000, -61.242
 594.2000, -61.130
 594.4000, -61.724
 594.6000, -61.087
 594.8000, -60.794
 595.0000, -60.836
 595.2000, -60.956
 595.4000, -60.930
 595.6000, -60.502
 595.8000, -60.687
 596.0000, -60.719
 596.2000, -60.107
 596.4000, -60.425
 596.6000, -60.839
 596.8000, -60.672
 597.0000, -60.384
 597.2000, -60.733
 597.4000, -60.209
 597.6000, -60.386
 597.8000, -60.394
 598.0000, -60.100
 598.2000, -60.141
 598.4000, -59.989
 598.6000, -60.299
 598.8000, -60.027
 599.0000, -59.954
 599.2000, -59.999
 599.4000, -59.972
 599.6000, -59.952
 599.8000, -59.933
 600.0000, -59.675
 600.2000, -59.765
 600.4000, -59.543
 600.6000, -59.586
 600.8000, -59.479
 601.0000, -59.370
 601.2000, -59.389
 601.4000, -59.487
 601.6000, -59.340
 601.8000, -58.834
 602.0000, -59.138
 602.2000, -59.184
 602.4000, -59.409
 602.6000, -59.119
 602.8000, -58.959
 603.0000, -58.992
 603.2000, -58.937
 603.4000, -58.776
 603.6000, -58.764
 603.8000, -58.950
 604.0000, -58.581
 604.2000, -59.016
 604.4000, -58.648
 604.6000, -58.618
 604.8000, -58.352
 605.0000, -58.398
 605.2000, -58.243
 605.4000, -58.440
 605.6000, -58.504
 605.8000, -58.405
 606.0000, -57.979
 606.2000, -58.144
 606.4000, -57.868
 606.6000, -58.028
 606.8000, -58.072
 607.0000, -57.934
 607.2000, -57.825
 607.4000, -57.820
 607.6000, -57.911
 607.8000, -57.636
 608.0000, -57.731
 608.2000, -57.558
 608.4000, -57.663
 608.6000, -57.721
 608.8000, -57.495
 609.0000, -57.511
 609.2000, -57.556
 609.4000, -57.401
 609.6000, -57.319
 609.8000, -57.412
 610.0000, -57.321
 610.2000, -57.311
 610.4000, -57.081
 610.6000, -57.269
 610.8000, -57.257
 611.0000, -57.085
 611.2000, -57.007
 611.4000, -56.835
 611.6000, -56.661
 611.8000, -56.609
 612.0000, -56.813
 612.2000, -56.605
 612.4000, -56.644
 612.6000, -56.354
 612.8000, -56.468
 613.0000, -56.396
 613.2000, -56.381
 613.4000, -56.333
 613.6000, -56.365
 613.8000, -56.135
 614.0000, -56.271
 614.2000, -56.198
 614.4000, -56.282
 614.6000, -56.291
 614.8000, -55.844
 615.0000, -55.984
 615.2000, -55.986
 615.4000, -55.757
 615.6000, -55.823
 615.8000, -55.614
 616.0000, -55.873
 616.2000, -55.608
 616.4000, -55.537
 616.6000, -55.404
 616.8000, -55.501
 617.0000, -55.369
 617.2000, -55.399
 617.4000, -55.381
 617.6000, -55.405
 617.8000, -55.086
 618.0000, -55.135
 618.2000, -55.033
 618.4000, -54.976
 618.6000, -54.837
 618.8000, -54.871
 619.0000, -54.814
 619.2000, -54.780
 619.4000, -54.899
 619.6000, -54.634
 619.8000, -54.573
 620.0000, -54.590
 620.2000, -54.530
 620.4000, -54.521
 620.6000, -54.476
 620.8000, -54.452
 621.0000, -54.505
 621.2000, -54.331
 621.4000, -54.324
 621.6000, -54.289
 621.8000, -54.224
 622.0000, -54.379
 622.2000, -54.090
 622.4000, -54.046
 622.6000, -53.963
 622.8000, -53.966
 623.0000, -54.041
 623.2000, -53.844
 623.4000, -53.868
 623.6000, -53.877
 623.8000, -53.730
 624.0000, -53.634
 624.2000, -53.614
 624.4000, -53.483
 624.6000, -53.503
 624.8000, -53.438
 625.0000, -53.369
 625.2000, -53.390
 625.4000, -53.505
 625.6000, -53.298
 625.8000, -53.201
 626.0000, -53.184
 626.2000, -53.194
 626.4000, -53.099
 626.6000, -53.026
 626.8000, -53.082
 627.0000, -52.924
 627.2000, -52.968
 627.4000, -52.830
 627.6000, -52.775
 627.8000, -52.853
 628.0000, -52.842
 628.2000, -52.714
 628.4000, -52.746
 628.6000, -52.445
 628.8000, -52.515
 629.0000, -52.490
 629.2000, -52.374
 629.4000, -52.377
 629.6000, -52.373
 629.8000, -52.339
 630.0000, -52.387
 630.2000, -52.210
 630.4000, -52.250
 630.6000, -52.133
 630.8000, -52.007
 631.0000, -52.147
 631.2000, -52.000
 631.4000, -52.032
 631.6000, -51.881
 631.8000, -51.889
 632.0000, -51.925
 632.2000, -51.837
 632.4000, -51.821
 632.6000, -51.776
 632.8000, -51.683
 633.0000, -51.672
 633.2000, -51.760
 633.4000, -51.576
 633.6000, -51.614
 633.8000, -51.561
 634.0000, -51.475
 634.2000, -51.371
 634.4000, -51.412
 634.6000, -51.393
 634.8000, -51.275
 635.0000, -51.305
 635.2000, -51.167
 635.4000, -51.179
 635.6000, -51.116
 635.8000, -51.153
 636.0000, -51.008
 636.2000, -51.198
 636.4000, -50.980
 636.6000, -50.967
 636.8000, -50.949
 637.0000, -51.013
 637.2000, -50.966
 637.4000, -50.882
 637.6000, -50.866
 637.8000, -50.757
 638.0000, -50.927
 638.2000, -50.741
 638.4000, -50.741
 638.6000, -50.607
 638.8000, -50.622
 639.0000, -50.717
 639.2000, -50.581
 639.4000, -50.455
 639.6000, -50.418
 639.8000, -50.451
 640.0000, -50.422
 640.2000, -50.484
 640.4000, -50.271
 640.6000, -50.224
 640.8000, -50.260
 641.0000, -50.269
 641.2000, -50.216
 641.4000, -50.228
 641.6000, -50.129
 641.8000, -50.210
 642.0000, -50.127
 642.2000, -49.967
 642.4000, -50.125
 642.6000, -49.993
 642.8000, -50.035
 643.0000, -49.951
 643.2000, -49.967
 643.4000, -49.891
 643.6000, -49.810
 643.8000, -49.765
 644.0000, -49.892
 644.2000, -49.941
 644.4000, -49.902
 644.6000, -49.807
 644.8000, -49.726
 645.0000, -49.776
 645.2000, -49.616
 645.4000, -49.657
 645.6000, -49.664
 645.8000, -49.593
 646.0000, -49.550
 646.2000, -49.471
 646.4000, -49.482
 646.6000, -49.436
 646.8000, -49.487
 647.0000, -49.462
 647.2000, -49.516
 647.4000, -49.451
 647.6000, -49.360
 647.8000, -49.342
 648.0000, -49.343
 648.2000, -49.303
 648.4000, -49.219
 648.6000, -49.227
 648.8000, -49.352
 649.0000, -49.272
 649.2000, -49.225
 649.4000, -49.243
 649.6000, -49.189
 649.8000, -49.103
 650.0000, -49.045
 650.2000, -49.087
 650.4000, -49.050
 650.6000, -49.121
 650.8000, -49.004
 651.0000, -48.867
 651.2000, -48.837
 651.4000, -48.867
 651.6000, -48.922
 651.8000, -48.851
 652.0000, -48.893
 652.2000, -48.814
 652.4000, -48.896
 652.6000, -48.856
 652.8000, -48.827
 653.0000, -48.724
 653.2000, -48.809
 653.4000, -48.801
 653.6000, -48.766
 653.8000, -48.758
 654.0000, -48.806
 654.2000, -48.760
 654.4000, -48.723
 654.6000, -48.492
 654.8000, -48.728
 655.0000, -48.648
 655.2000, -48.502
 655.4000, -48.544
 655.6000, -48.518
 655.8000, -48.550
 656.0000, -48.476
 656.2000, -48.498
 656.4000, -48.454
 656.6000, -48.460
 656.8000, -48.545
 657.0000, -48.420
 657.2000, -48.440
 657.4000, -48.394
 657.6000, -48.437
 657.8000, -48.488
 658.0000, -48.346
 658.2000, -48.350
 658.4000, -48.374
 658.6000, -48.382
 658.8000, -48.282
 659.0000, -48.298
 659.2000, -48.265
 659.4000, -48.266
 659.6000, -48.262
 659.8000, -48.294
 660.0000, -48.190
 660.2000, -48.104
 660.4000, -48.168
 660.6000, -48.214
 660.8000, -48.100
 661.0000, -48.151
 661.2000, -48.207
 661.4000, -48.040
 661.6000, -48.094
 661.8000, -48.123
 662.0000, -48.138
 662.2000, -48.078
 662.4000, -48.130
 662.6000, -48.002
 662.8000, -48.003
 663.0000, -47.950
 663.2000, -47.945
 663.4000, -48.067
 663.6000, -47.850
 663.8000, -47.958
 664.0000, -48.003
 664.2000, -47.929
 664.4000, -47.956
 664.6000, -47.896
 664.8000, -47.835
 665.0000, -47.948
 665.2000, -47.881
 665.4000, -47.952
 665.6000, -47.794
 665.8000, -47.777
 666.0000, -47.894
 666.2000, -47.789
 666.4000, -47.770
 666.6000, -47.686
 666.8000, -47.816
 667.0000, -47.732
 667.2000, -47.775
 667.4000, -47.743
 667.6000, -47.763
 667.8000, -47.801
 668.0000, -47.739
 668.2000, -47.674
 668.4000, -47.739
 668.6000, -47.722
 668.8000, -47.866
 669.0000, -47.701
 669.2000, -47.673
 669.4000, -47.773
 669.6000, -47.688
 669.8000, -47.690
 670.0000, -47.768
 670.2000, -47.784
 670.4000, -47.689
 670.6000, -47.654
 670.8000, -47.680
 671.0000, -47.563
 671.2000, -47.554
 671.4000, -47.581
 671.6000, -47.491
 671.8000, -47.606
 672.0000, -47.578
 672.2000, -47.584
 672.4000, -47.496
 672.6000, -47.671
 672.8000, -47.458
 673.0000, -47.569
 673.2000, -47.726
 673.4000, -47.571
 673.6000, -47.518
 673.8000, -47.499
 674.0000, -47.478
 674.2000, -47.587
 674.4000, -47.503
 674.6000, -47.520
 674.8000, -47.555
 675.0000, -47.520
 675.2000, -47.535
 675.4000, -47.413
 675.6000, -47.440
 675.8000, -47.497
 676.0000, -47.605
 676.2000, -47.574
 676.4000, -47.447
 676.6000, -47.475
 676.8000, -47.479
 677.0000, -47.585
 677.2000, -47.466
 677.4000, -47.431
 677.6000, -47.491
 677.8000, -47.461
 678.0000, -47.429
 678.2000, -47.552
 678.4000, -47.565
 678.6000, -47.430
 678.8000, -47.477
 679.0000, -47.390
 679.2000, -47.599
 679.4000, -47.455
 679.6000, -47.384
 679.8000, -47.323
 680.0000, -47.466
 680.2000, -47.515
 680.4000, -47.430
 680.6000, -47.442
 680.8000, -47.459
 681.0000, -47.524
 681.2000, -47.358
 681.4000, -47.308
 681.6000, -47.428
 681.8000, -47.437
 682.0000, -47.488
 682.2000, -47.401
 682.4000, -47.446
 682.6000, -47.348
 682.8000, -47.366
 683.0000, -47.327
 683.2000, -47.391
 683.4000, -47.322
 683.6000, -47.371
 683.8000, -47.282
 684.0000, -47.402
 684.2000, -47.331
 684.4000, -47.435
 684.6000, -47.353
 684.8000, -47.325
 685.0000, -47.353
 685.2000, -47.374
 685.4000, -47.334
 685.6000, -47.362
 685.8000, -47.568
 686.0000, -47.268
 686.2000, -47.378
 686.4000, -47.272
 686.6000, -47.320
 686.8000, -47.312
 687.0000, -47.278
 687.2000, -47.341
 687.4000, -47.310
 687.6000, -47.323
 687.8000, -47.342
 688.0000, -47.317
 688.2000, -47.265
 688.4000, -47.326
 688.6000, -47.452
 688.8000, -47.463
 689.0000, -47.393
 689.2000, -47.442
 689.4000, -47.385
 689.6000, -47.268
 689.8000, -47.268
 690.0000, -47.367
 690.2000, -47.379
 690.4000, -47.405
 690.6000, -47.338
 690.8000, -47.299
 691.0000, -47.411
 691.2000, -47.305
 691.4000, -47.330
 691.6000, -47.316
 691.8000, -47.310
 692.0000, -47.383
 692.2000, -47.381
 692.4000, -47.373
 692.6000, -47.518
 692.8000, -47.470
 693.0000, -47.350
 693.2000, -47.288
 693.4000, -47.472
 693.6000, -47.342
 693.8000, -47.393
 694.0000, -47.440
 694.2000, -47.478
 694.4000, -47.369
 694.6000, -47.398
 694.8000, -47.509
 695.0000, -47.413
 695.2000, -47.440
 695.4000, -47.349
 695.6000, -47.380
 695.8000, -47.421
 696.0000, -47.417
 696.2000, -47.443
 696.4000, -47.390
 696.6000, -47.500
 696.8000, -47.344
 697.0000, -47.483
 697.2000, -47.476
 697.4000, -47.356
 697.6000, -47.575
 697.8000, -47.436
 698.0000, -47.479
 698.2000, -47.434
 698.4000, -47.540
 698.6000, -47.401
 698.8000, -47.470
 699.0000, -47.368
 699.2000, -47.404
 699.4000, -47.432
 699.6000, -47.433
 699.8000, -47.500
 700.0000, -47.451
 700.2000, -47.516
 700.4000, -47.528
 700.6000, -47.526
 700.8000, -47.511
 701.0000, -47.530
 701.2000, -47.426
 701.4000, -47.528
 701.6000, -47.543
 701.8000, -47.616
 702.0000, -47.507
 702.2000, -47.594
 702.4000, -47.671
 702.6000, -47.531
 702.8000, -47.531
 703.0000, -47.534
 703.2000, -47.644
 703.4000, -47.555
 703.6000, -47.688
 703.8000, -47.562
 704.0000, -47.734
 704.2000, -47.587
 704.4000, -47.610
 704.6000, -47.668
 704.8000, -47.575
 705.0000, -47.586
 705.2000, -47.680
 705.4000, -47.677
 705.6000, -47.689
 705.8000, -47.709
 706.0000, -47.715
 706.2000, -47.744
 706.4000, -47.719
 706.6000, -47.779
 706.8000, -47.849
 707.0000, -47.703
 707.2000, -47.744
 707.4000, -47.669
 707.6000, -47.800
 707.8000, -47.824
 708.0000, -47.763
 708.2000, -47.813
 708.4000, -47.779
 708.6000, -47.867
 708.8000, -47.927
 709.0000, -47.766
 709.2000, -47.821
 709.4000, -47.906
 709.6000, -47.915
 709.8000, -47.863
 710.0000, -47.925
 710.2000, -48.012
 710.4000, -48.011
 710.6000, -47.959
 710.8000, -48.004
 711.0000, -47.954
 711.2000, -47.864
 711.4000, -47.991
 711.6000, -47.993
 711.8000, -47.932
 712.0000, -48.037
 712.2000, -47.929
 712.4000, -48.018
 712.6000, -48.024
 712.8000, -48.015
 713.0000, -48.021
 713.2000, -48.077
 713.4000, -47.985
 713.6000, -48.169
 713.8000, -48.070
 714.0000, -48.102
 714.2000, -48.171
 714.4000, -48.175
 714.6000, -48.156
 714.8000, -48.159
 715.0000, -48.205
 715.2000, -48.188
 715.4000, -48.107
 715.6000, -48.209
 715.8000, -48.207
 716.0000, -48.238
 716.2000, -48.206
 716.4000, -48.307
 716.6000, -48.230
 716.8000, -48.236
 717.0000, -48.308
 717.2000, -48.272
 717.4000, -48.375
 717.6000, -48.396
 717.8000, -48.279
 718.0000, -48.334
 718.2000, -48.361
 718.4000, -48.396
 718.6000, -48.479
 718.8000, -48.287
 719.0000, -48.487
 719.2000, -48.523
 719.4000, -48.494
 719.6000, -48.488
 719.8000, -48.476
 720.0000, -48.652
 720.2000, -48.567
 720.4000, -48.580
 720.6000, -48.442
 720.8000, -48.456
 721.0000, -48.542
 721.2000, -48.565
 721.4000, -48.582
 721.6000, -48.573
 721.8000, -48.623
 722.0000, -48.565
 722.2000, -48.673
 722.4000, -48.681
 722.6000, -48.613
 722.8000, -48.746
 723.0000, -48.652
 723.2000, -48.745
 723.4000, -48.721
 723.6000, -48.678
 723.8000, -48.764
 724.0000, -48.809
 724.2000, -48.719
 724.4000, -48.703
 724.6000, -48.648
 724.8000, -48.809
 725.0000, -48.870
 725.2000, -48.849
 725.4000, -48.838
 725.6000, -48.921
 725.8000, -48.810
 726.0000, -48.853
 726.2000, -48.943
 726.4000, -48.877
 726.6000, -48.983
 726.8000, -48.887
 727.0000, -48.839
 727.2000, -48.835
 727.4000, -48.988
 727.6000, -48.877
 727.8000, -48.930
 728.0000, -48.878
 728.2000, -48.921
 728.4000, -48.934
 728.6000, -49.033
 728.8000, -49.048
 729.0000, -49.018
 729.2000, -49.018
 729.4000, -49.044
 729.6000, -49.016
 729.8000, -49.054
 730.0000, -49.182
 730.2000, -49.104
 730.4000, -49.082
 730.6000, -49.119
 730.8000, -49.178
 731.0000, -49.129
 731.2000, -49.128
 731.4000, -49.097
 731.6000, -49.226
 731.8000, -49.237
 732.0000, -49.157
 732.2000, -49.176
 732.4000, -49.308
 732.6000, -49.327
 732.8000, -49.296
 733.0000, -49.310
 733.2000, -49.348
 733.4000, -49.322
 733.6000, -49.264
 733.8000, -49.305
 734.0000, -49.260
 734.2000, -49.230
 734.4000, -49.293
 734.6000, -49.336
 734.8000, -49.350
 735.0000, -49.407
 735.2000, -49.492
 735.4000, -49.412
 735.6000, -49.355
 735.8000, -49.377
 736.0000, -49.421
 736.2000, -49.396
 736.4000, -49.500
 736.6000, -49.518
 736.8000, -49.501
 737.0000, -49.536
 737.2000, -49.412
 737.4000, -49.530
 737.6000, -49.524
 737.8000, -49.679
 738.0000, -49.678
 738.2000, -49.500
 738.4000, -49.617
 738.6000, -49.592
 738.8000, -49.541
 739.0000, -49.583
 739.2000, -49.603
 739.4000, -49.548
 739.6000, -49.691
 739.8000, -49.631
 740.0000, -49.788
 740.2000, -49.765
 740.4000, -49.686
 740.6000, -49.760
 740.8000, -49.689
 741.0000, -49.749
 741.2000, -49.705
 741.4000, -49.798
 741.6000, -49.838
 741.8000, -49.739
 742.0000, -49.880
 742.2000, -49.780
 742.4000, -49.828
 742.6000, -49.693
 742.8000, -49.810
 743.0000, -49.806
 743.2000, -49.846
 743.4000, -49.845
 743.6000, -49.952
 743.8000, -49.994
 744.0000, -49.889
 744.2000, -50.097
 744.4000, -49.946
 744.6000, -50.062
 744.8000, -49.929
 745.0000, -50.031
 745.2000, -49.923
 745.4000, -49.953
 745.6000, -50.087
 745.8000, -50.126
 746.0000, -50.138
 746.2000, -50.010
 746.4000, -50.112
 746.6000, -50.105
 746.8000, -50.096
 747.0000, -50.141
 747.2000, -50.074
 747.4000, -50.034
 747.6000, -50.122
 747.8000, -50.056
 748.0000, -50.015
 748.2000, -50.076
 748.4000, -50.040
 748.6000, -50.200
 748.8000, -50.147
 749.0000, -50.152
 749.2000, -50.154
 749.4000, -50.196
 749.6000, -50.183
 749.8000, -50.311
 750.0000, -50.142
 750.2000, -50.167
 750.4000, -50.280
 750.6000, -50.253
 750.8000, -50.188
 751.0000, -50.233
 751.2000, -50.399
 751.4000, -50.242
 751.6000, -50.247
 751.8000, -50.238
 752.0000, -50.284
 752.2000, -50.363
 752.4000, -50.342
 752.6000, -50.382
 752.8000, -50.313
 753.0000, -50.540
 753.2000, -50.375
 753.4000, -50.488
 753.6000, -50.526
 753.8000, -50.510
 754.0000, -50.423
 754.2000, -50.427
 754.4000, -50.536
 754.6000, -50.406
 754.8000, -50.487
 755.0000, -50.476
 755.2000, -50.477
 755.4000, -50.533
 755.6000, -50.589
 755.8000, -50.524
 756.0000, -50.605
 756.2000, -50.639
 756.4000, -50.645
 756.6000, -50.593
 756.8000, -50.586
 757.0000, -50.550
 757.2000, -50.515
 757.4000, -50.620
 757.6000, -50.681
 757.8000, -50.695
 758.0000, -50.674
 758.2000, -50.613
 758.4000, -50.628
 758.6000, -50.679
 758.8000, -50.742
 759.0000, -50.763
 759.2000, -50.752
 759.4000, -50.711
 759.6000, -50.748
 759.8000, -50.815
 760.0000, -50.935
 760.2000, -50.822
 760.4000, -50.890
 760.6000, -50.847
 760.8000, -50.887
 761.0000, -50.824
 761.2000, -50.853
 761.4000, -50.867
 761.6000, -50.848
 761.8000, -50.907
 762.0000, -50.910
 762.2000, -50.919
 762.4000, -50.855
 762.6000, -50.921
 762.8000, -50.855
 763.0000, -50.977
 763.2000, -50.926
 763.4000, -50.960
 763.6000, -50.952
 763.8000, -50.891
 764.0000, -51.039
 764.2000, -51.062
 764.4000, -51.006
 764.6000, -50.976
 764.8000, -50.967
 765.0000, -50.977
 765.2000, -50.985
 765.4000, -51.129
 765.6000, -51.101
 765.8000, -51.108
 766.0000, -51.035
 766.2000, -51.113
 766.4000, -51.129
 766.6000, -51.110
 766.8000, -51.122
 767.0000, -51.238
 767.2000, -51.025
 767.4000, -51.101
 767.6000, -51.287
 767.8000, -51.192
 768.0000, -51.254
 768.2000, -51.268
 768.4000, -51.189
 768.6000, -51.290
 768.8000, -51.359
 769.0000, -51.249
 769.2000, -51.224
 769.4000, -51.290
 769.6000, -51.364
 769.8000, -51.333
 770.0000, -51.306
 770.2000, -51.397
 770.4000, -51.267
 770.6000, -51.315
 770.8000, -51.369
 771.0000, -51.257
 771.2000, -51.271
 771.4000, -51.345
 771.6000, -51.416
 771.8000, -51.476
 772.0000, -51.453
 772.2000, -51.422
 772.4000, -51.542
 772.6000, -51.401
 772.8000, -51.480
 773.0000, -51.440
 773.2000, -51.525
 773.4000, -51.517
 773.6000, -51.537
 773.8000, -51.558
 774.0000, -51.444
 774.2000, -51.487
 774.4000, -51.576
 774.6000, -51.534
 774.8000, -51.663
 775.0000, -51.564
 775.2000, -51.528
 775.4000, -51.654
 775.6000, -51.641
 775.8000, -51.685
 776.0000, -51.719
 776.2000, -51.676
 776.4000, -51.699
 776.6000, -51.642
 776.8000, -51.761
 777.0000, -51.745
 777.2000, -51.717
 777.4000, -51.777
 777.6000, -51.803
 777.8000, -51.914
 778.0000, -51.937
 778.2000, -51.872
 778.4000, -51.792
 778.6000, -51.883
 778.8000, -51.926
 779.0000, -51.990
 779.2000, -51.886
 779.4000, -51.881
 779.6000, -51.867
 779.8000, -51.972
 780.0000, -51.985
 780.2000, -51.979
 780.4000, -51.940
 780.6000, -51.970
 780.8000, -52.045
 781.0000, -51.939
 781.2000, -51.932
 781.4000, -51.963
 781.6000, -51.968
 781.8000, -52.046
 782.0000, -52.120
 782.2000, -52.081
 782.4000, -52.115
 782.6000, -52.044
 782.8000, -52.201
 783.0000, -52.176
 783.2000, -52.187
 783.4000, -52.163
 783.6000, -52.285
 783.8000, -52.175
 784.0000, -52.135
 784.2000, -52.094
 784.4000, -52.245
 784.6000, -52.239
 784.8000, -52.360
 785.0000, -52.284
 785.2000, -52.423
 785.4000, -52.263
 785.6000, -52.269
 785.8000, -52.242
 786.0000, -52.425
 786.2000, -52.367
 786.4000, -52.453
 786.6000, -52.267
 786.8000, -52.438
 787.0000, -52.375
 787.2000, -52.389
 787.4000, -52.354
 787.6000, -52.502
 787.8000, -52.454
 788.0000, -52.555
 788.2000, -52.443
 788.4000, -52.575
 788.6000, -52.479
 788.8000, -52.527
 789.0000, -52.624
 789.2000, -52.683
 789.4000, -52.497
 789.6000, -52.407
 789.8000, -52.601
 790.0000, -52.547
 790.2000, -52.523
 790.4000, -52.750
 790.6000, -52.673
 790.8000, -52.772
 791.0000, -52.794
 791.2000, -52.602
 791.4000, -52.709
 791.6000, -52.757
 791.8000, -52.846
 792.0000, -52.743
 792.2000, -52.706
 792.4000, -52.796
 792.6000, -52.755
 792.8000, -52.821
 793.0000, -52.873
 793.2000, -52.856
 793.4000, -52.928
 793.6000, -52.900
 793.8000, -52.960
 794.0000, -52.885
 794.2000, -52.815
 794.4000, -52.890
 794.6000, -53.077
 794.8000, -53.006
 795.0000, -52.888
 795.2000, -52.973
 795.4000, -52.883
 795.6000, -52.914
 795.8000, -53.119
 796.0000, -53.075
 796.2000, -53.146
 796.4000, -53.091
 796.6000, -53.124
 796.8000, -53.087
 797.0000, -53.063
 797.2000, -53.157
 797.4000, -53.191
 797.6000, -53.103
 797.8000, -53.199
 798.0000, -53.194
 798.2000, -53.142
 798.4000, -53.199
 798.6000, -53.102
 798.8000, -53.210
 799.0000, -53.258
 799.2000, -53.358
 799.4000, -53.367
 799.6000, -53.238
 799.8000, -53.275
 800.0000, -53.353
 800.2000, -53.359
 800.4000, -53.379
 800.6000, -53.380
 800.8000, -53.374
 801.0000, -53.391
 801.2000, -53.348
 801.4000, -53.370
 801.6000, -53.409
 801.8000, -53.402
 802.0000, -53.461
 802.2000, -53.419
 802.4000, -53.480
 802.6000, -53.502
 802.8000, -53.431
 803.0000, -53.463
 803.2000, -53.656
 803.4000, -53.527
 803.6000, -53.578
 803.8000, -53.563
 804.0000, -53.602
 804.2000, -53.709
 804.4000, -53.625
 804.6000, -53.655
 804.8000, -53.750
 805.0000, -53.719
 805.2000, -53.650
 805.4000, -53.676
 805.6000, -53.807
 805.8000, -53.927
 806.0000, -53.816
 806.2000, -53.809
 806.4000, -53.824
 806.6000, -53.773
 806.8000, -53.808
 807.0000, -53.847
 807.2000, -53.797
 807.4000, -53.873
 807.6000, -53.742
 807.8000, -53.804
 808.0000, -53.794
 808.2000, -53.854
 808.4000, -53.831
 808.6000, -53.728
 808.8000, -53.898
 809.0000, -53.923
 809.2000, -53.950
 809.4000, -53.909
 809.6000, -53.992
 809.8000, -54.000
 810.0000, -54.003
 810.2000, -53.948
 810.4000, -54.163
 810.6000, -54.090
 810.8000, -53.993
 811.0000, -54.201
 811.2000, -54.089
 811.4000, -54.220
 811.6000, -54.082
 811.8000, -54.152
 812.0000, -54.211
 812.2000, -54.180
 812.4000, -54.174
 812.6000, -54.158
 812.8000, -54.206
 813.0000, -54.209
 813.2000, -54.189
 813.4000, -54.158
 813.6000, -54.271
 813.8000, -54.398
 814.0000, -54.351
 814.2000, -54.413
 814.4000, -54.286
 814.6000, -54.353
 814.8000, -54.381
 815.0000, -54.497
 815.2000, -54.460
 815.4000, -54.310
 815.6000, -54.478
 815.8000, -54.325
 816.0000, -54.397
 816.2000, -54.531
 816.4000, -54.472
 816.6000, -54.490
 816.8000, -54.437
 817.0000, -54.440
 817.2000, -54.493
 817.4000, -54.520
 817.6000, -54.472
 817.8000, -54.728
 818.0000, -54.644
 818.2000, -54.753
 818.4000, -54.484
 818.6000, -54.618
 818.8000, -54.637
 819.0000, -54.799
 819.2000, -54.707
 819.4000, -54.792
 819.6000, -54.599
 819.8000, -54.612
 820.0000, -54.722
 820.2000, -54.675
 820.4000, -54.595
 820.6000, -54.673
 820.8000, -54.781
 821.0000, -54.876
 821.2000, -54.734
 821.4000, -54.819
 821.6000, -54.822
 821.8000, -54.815
 822.0000, -54.829
 822.2000, -54.853
 822.4000, -54.900
 822.6000, -54.941
 822.8000, -54.889
 823.0000, -54.903
 823.2000, -54.921
 823.4000, -54.939
 823.6000, -54.931
 823.8000, -55.044
 824.0000, -54.929
 824.2000, -54.986
 824.4000, -55.023
 824.6000, -55.227
 824.8000, -55.005
 825.0000, -54.999
 825.2000, -54.933
 825.4000, -54.915
 825.6000, -55.070
 825.8000, -54.957
 826.0000, -54.971
 826.2000, -55.146
 826.4000, -55.106
 826.6000, -55.162
 826.8000, -55.108
 827.0000, -55.227
 827.2000, -55.098
 827.4000, -55.166
 827.6000, -55.235
 827.8000, -55.303
 828.0000, -55.258
 828.2000, -55.206
 828.4000, -55.156
 828.6000, -55.302
 828.8000, -55.279
 829.0000, -55.250
 829.2000, -55.195
 829.4000, -55.226
 829.6000, -55.373
 829.8000, -55.362
 830.0000, -55.332
 830.2000, -55.298
 830.4000, -55.413
 830.6000, -55.371
 830.8000, -55.401
 831.0000, -55.373
 831.2000, -55.119
 831.4000, -55.425
 831.6000, -55.509
 831.8000, -55.495
 832.0000, -55.399
 832.2000, -55.362
 832.4000, -55.474
 832.6000, -55.535
 832.8000, -55.367
 833.0000, -55.444
 833.2000, -55.549
 833.4000, -55.621
 833.6000, -55.451
 833.8000, -55.449
 834.0000, -55.636
 834.2000, -55.471
 834.4000, -55.639
 834.6000, -55.595
 834.8000, -55.654
 835.0000, -55.495
 835.2000, -55.744
 835.4000, -55.624
 835.6000, -55.605
 835.8000, -55.671
 836.0000, -55.726
 836.2000, -55.589
 836.4000, -55.711
 836.6000, -55.706
 836.8000, -55.666
 837.0000, -55.771
 837.2000, -55.735
 837.4000, -55.761
 837.6000, -55.755
 837.8000, -55.733
 838.0000, -55.797
 838.2000, -55.716
 838.4000, -55.876
 838.6000, -55.848
 838.8000, -55.788
 839.0000, -55.776
 839.2000, -55.678
 839.4000, -55.877
 839.6000, -55.869
 839.8000, -55.879
 840.0000, -55.850
 840.2000, -55.932
 840.4000, -55.995
 840.6000, -55.734
 840.8000, -55.868
 841.0000, -55.932
 841.2000, -55.847
 841.4000, -56.092
 841.6000, -55.916
 841.8000, -55.997
 842.0000, -55.999
 842.2000, -56.131
 842.4000, -55.993
 842.6000, -56.144
 842.8000, -56.016
 843.0000, -55.936
 843.2000, -56.094
 843.4000, -56.042
 843.6000, -56.100
 843.8000, -56.056
 844.0000, -56.080
 844.2000, -56.071
 844.4000, -56.283
 844.6000, -56.198
 844.8000, -56.237
 845.0000, -56.209
 845.2000, -56.173
 845.4000, -56.196
 845.6000, -56.281
 845.8000, -56.153
 846.0000, -56.133
 846.2000, -56.168
 846.4000, -56.159
 846.6000, -56.348
 846.8000, -56.291
 847.0000, -56.371
 847.2000, -56.372
 847.4000, -56.388
 847.6000, -56.324
 847.8000, -56.452
 848.0000, -56.365
 848.2000, -56.351
 848.4000, -56.315
 848.6000, -56.340
 848.8000, -56.449
 849.0000, -56.527
 849.2000, -56.326
 849.4000, -56.538
 849.6000, -56.488
 849.8000, -56.485
 850.0000, -56.497
 850.2000, -56.477
 850.4000, -56.431
 850.6000, -56.503
 850.8000, -56.525
 851.0000, -56.484
 851.2000, -56.472
 851.4000, -56.644
 851.6000, -56.524
 851.8000, -56.659
 852.0000, -56.616
 852.2000, -56.543
 852.4000, -56.616
 852.6000, -56.688
 852.8000, -56.708
 853.0000, -56.551
 853.2000, -56.667
 853.4000, -56.848
 853.6000, -56.692
 853.8000, -56.609
 854.0000, -56.586
 854.2000, -56.633
 854.4000, -56.707
 854.6000, -56.594
 854.8000, -56.697
 855.0000, -56.596
 855.2000, -56.728
 855.4000, -56.627
 855.6000, -56.737
 855.8000, -56.857
 856.0000, -56.791
 856.2000, -56.801
 856.4000, -56.769
 856.6000, -56.915
 856.8000, -56.897
 857.0000, -56.814
 857.2000, -56.815
 857.4000, -56.909
 857.6000, -56.822
 857.8000, -56.827
 858.0000, -56.866
 858.2000, -56.998
 858.4000, -56.895
 858.6000, -56.796
 858.8000, -56.838
 859.0000, -57.037
 859.2000, -56.897
 859.4000, -56.971
 859.6000, -56.904
 859.8000, -56.929
 860.0000, -56.867
 860.2000, -56.937
 860.4000, -56.963
 860.6000, -57.057
 860.8000, -57.047
 861.0000, -57.074
 861.2000, -56.979
 861.4000, -56.918
 861.6000, -57.088
 861.8000, -56.986
 862.0000, -57.044
 862.2000, -57.017
 862.4000, -57.053
 862.6000, -57.057
 862.8000, -57.134
 863.0000, -57.160
 863.2000, -57.247
 863.4000, -57.016
 863.6000, -57.200
 863.8000, -57.224
 864.0000, -57.249
 864.2000, -57.188
 864.4000, -57.376
 864.6000, -57.160
 864.8000, -57.270
 865.0000, -57.225
 865.2000, -57.131
 865.4000, -57.125
 865.6000, -57.217
 865.8000, -57.186
 866.0000, -57.212
 866.2000, -57.206
 866.4000, -57.192
 866.6000, -57.269
 866.8000, -57.236
 867.0000, -57.266
 867.2000, -57.424
 867.4000, -57.270
 867.6000, -57.216
 867.8000, -57.280
 868.0000, -57.414
 868.2000, -57.442
 868.4000, -57.313
 868.6000, -57.548
 868.8000, -57.338
 869.0000, -57.286
 869.2000, -57.407
 869.4000, -57.437
 869.6000, -57.382
 869.8000, -57.445
 870.0000, -57.582
 870.2000, -57.512
 870.4000, -57.514
 870.6000, -57.489
 870.8000, -57.466
 871.0000, -57.467
 871.2000, -57.629
 871.4000, -57.505
 871.6000, -57.583
 871.8000, -57.693
 872.0000, -57.653
 872.2000, -57.559
 872.4000, -57.404
 872.6000, -57.621
 872.8000, -57.580
 873.0000, -57.517
 873.2000, -57.614
 873.4000, -57.625
 873.6000, -57.580
 873.8000, -57.524
 874.0000, -57.677
 874.2000, -57.538
 874.4000, -57.764
 874.6000, -57.639
 874.8000, -57.749
 875.0000, -57.547
 875.2000, -57.649
 875.4000, -57.693
 875.6000, -57.620
 875.8000, -57.786
 876.0000, -57.669
 876.2000, -57.677
 876.4000, -57.745
 876.6000, -57.740
 876.8000, -57.797
 877.0000, -57.735
 877.2000, -57.936
 877.4000, -57.747
 877.6000, -57.663
 877.8000, -57.837
 878.0000, -57.747
 878.2000, -57.794
 878.4000, -57.722
 878.6000, -57.850
 878.8000, -57.622
 879.0000, -57.813
 879.2000, -57.922
 879.4000, -57.798
 879.6000, -57.666
 879.8000, -57.912
 880.0000, -57.734
 880.2000, -57.980
 880.4000, -57.949
 880.6000, -57.966
 880.8000, -57.883
 881.0000, -57.962
 881.2000, -57.854
 881.4000, -57.920
 881.6000, -58.130
 881.8000, -57.965
 882.0000, -58.084
 882.2000, -57.777
 882.4000, -58.050
 882.6000, -57.887
 882.8000, -57.938
 883.0000, -57.977
 883.2000, -58.089
 883.4000, -58.079
 883.6000, -58.045
 883.8000, -58.090
 884.0000, -57.937
 884.2000, -58.061
 884.4000, -58.203
 884.6000, -58.088
 884.8000, -58.043
 885.0000, -58.088
 885.2000, -57.970
 885.4000, -58.012
 885.6000, -58.030
 885.8000, -58.059
 886.0000, -58.085
 886.2000, -58.086
 886.4000, -58.146
 886.6000, -58.075
 886.8000, -58.174
 887.0000, -58.029
 887.2000, -58.163
 887.4000, -58.154
 887.6000, -58.233
 887.8000, -58.178
 888.0000, -58.186
 888.2000, -58.143
 888.4000, -58.201
 888.6000, -58.197
 888.8000, -58.144
 889.0000, -58.188
 889.2000, -58.240
 889.4000, -58.157
 889.6000, -58.209
 889.8000, -58.265
 890.0000, -58.319
 890.2000, -58.297
 890.4000, -58.171
 890.6000, -58.517
 890.8000, -58.221
 891.0000, -58.243
 891.2000, -58.248
 891.4000, -58.418
 891.6000, -58.286
 891.8000, -58.222
 892.0000, -58.400
 892.2000, -58.344
 892.4000, -58.402
 892.6000, -58.332
 892.8000, -58.276
 893.0000, -58.324
 893.2000, -58.387
 893.4000, -58.399
 893.6000, -58.290
 893.8000, -58.347
 894.0000, -58.462
 894.2000, -58.526
 894.4000, -58.411
 894.6000, -58.461
 894.8000, -58.443
 895.0000, -58.359
 895.2000, -58.473
 895.4000, -58.507
 895.6000, -58.444
 895.8000, -58.621
 896.0000, -58.597
 896.2000, -58.475
 896.4000, -58.521
 896.6000, -58.460
 896.8000, -58.566
 897.0000, -58.494
 897.2000, -58.580
 897.4000, -58.639
 897.6000, -58.585
 897.8000, -58.633
 898.0000, -58.495
 898.2000, -58.528
 898.4000, -58.634
 898.6000, -58.464
 898.8000, -58.518
 899.0000, -58.550
 899.2000, -58.812
 899.4000, -58.688
 899.6000, -58.597
 899.8000, -58.708
 900.0000, -58.613
 900.2000, -58.705
 900.4000, -58.602
 900.6000, -58.749
 900.8000, -58.589
 901.0000, -58.722
 901.2000, -58.781
 901.4000, -58.659
 901.6000, -58.781
 901.8000, -58.681
 902.0000, -58.789
 902.2000, -58.840
 902.4000, -58.924
 902.6000, -58.750
 902.8000, -58.710
 903.0000, -58.801
 903.2000, -58.864
 903.4000, -58.795
 903.6000, -58.897
 903.8000, -58.676
 904.0000, -58.662
 904.2000, -58.852
 904.4000, -58.987
 904.6000, -58.769
 904.8000, -58.771
 905.0000, -58.899
 905.2000, -58.864
 905.4000, -58.933
 905.6000, -58.898
 905.8000, -58.875
 906.0000, -58.845
 906.2000, -58.821
 906.4000, -58.896
 906.6000, -59.002
 906.8000, -59.123
 907.0000, -58.882
 907.2000, -59.022
 907.4000, -58.851
 907.6000, -58.937
 907.8000, -58.897
 908.0000, -59.078
 908.2000, -59.026
 908.4000, -58.963
 908.6000, -58.970
 908.8000, -59.102
 909.0000, -59.083
 909.2000, -59.083
 909.4000, -58.968
 909.6000, -59.016
 909.8000, -59.139
 910.0000, -58.981
 910.2000, -59.142
 910.4000, -59.018
 910.6000, -58.976
 910.8000, -59.253
 911.0000, -59.078
 911.2000, -59.153
 911.4000, -59.114
 911.6000, -59.042
 911.8000, -59.157
 912.0000, -59.147
 912.2000, -58.932
 912.4000, -59.095
 912.6000, -59.047
 912.8000, -59.225
 913.0000, -59.148
 913.2000, -59.058
 913.4000, -59.116
 913.6000, -59.254
 913.8000, -59.168
 914.0000, -59.262
 914.2000, -59.409
 914.4000, -59.217
 914.6000, -59.163
 914.8000, -59.193
 915.0000, -59.333
 915.2000, -59.337
 915.4000, -59.290
 915.6000, -59.362
 915.8000, -59.246
 916.0000, -59.166
 916.2000, -59.175
 916.4000, -59.200
 916.6000, -59.258
 916.8000, -59.274
 917.0000, -59.257
 917.2000, -59.287
 917.4000, -59.313
 917.6000, -59.348
 917.8000, -59.296
 918.0000, -59.332
 918.2000, -59.285
 918.4000, -59.303
 918.6000, -59.230
 918.8000, -59.446
 919.0000, -59.381
 919.2000, -59.378
 919.4000, -59.339
 919.6000, -59.419
 919.8000, -59.427
 920.0000, -59.303
 920.2000, -59.387
 920.4000, -59.349
 920.6000, -59.600
 920.8000, -59.262
 921.0000, -59.477
 921.2000, -59.499
 921.4000, -59.610
 921.6000, -59.577
 921.8000, -59.395
 922.0000, -59.508
 922.2000, -59.558
 922.4000, -59.454
 922.6000, -59.591
 922.8000, -59.464
 923.0000, -59.450
 923.2000, -59.540
 923.4000, -59.590
 923.6000, -59.445
 923.8000, -59.566
 924.0000, -59.521
 924.2000, -59.455
 924.4000, -59.693
 924.6000, -59.644
 924.8000, -59.588
 925.0000, -59.509
 925.2000, -59.654
 925.4000, -59.546
 925.6000, -59.470
 925.8000, -59.689
 926.0000, -59.762
 926.2000, -59.581
 926.4000, -59.779
 926.6000, -59.645
 926.8000, -59.550
 927.0000, -59.824
 927.2000, -59.859
 927.4000, -59.702
 927.6000, -59.823
 927.8000, -59.698
 928.0000, -59.786
 928.2000, -59.814
 928.4000, -59.759
 928.6000, -59.944
 928.8000, -59.861
 929.0000, -59.883
 929.2000, -59.767
 929.4000, -59.710
 929.6000, -59.669
 929.8000, -59.784
 930.0000, -59.831
 930.2000, -59.817
 930.4000, -59.789
 930.6000, -59.771
 930.8000, -59.862
 931.0000, -59.901
 931.2000, -59.868
 931.4000, -59.853
 931.6000, -60.011
 931.8000, -59.768
 932.0000, -59.938
 932.2000, -60.021
 932.4000, -59.904
 932.6000, -60.062
 932.8000, -59.999
 933.0000, -60.047
 933.2000, -59.968
 933.4000, -59.984
 933.6000, -60.007
 933.8000, -59.976
 934.0000, -60.081
 934.2000, -59.934
 934.4000, -60.125
 934.6000, -60.045
 934.8000, -60.036
 935.0000, -60.104
 935.2000, -59.998
 935.4000, -60.260
 935.6000, -60.280
 935.8000, -60.390
 936.0000, -60.126
 936.2000, -60.284
 936.4000, -60.119
 936.6000, -60.314
 936.8000, -60.427
 937.0000, -60.334
 937.2000, -60.360
 937.4000, -60.163
 937.6000, -60.217
 937.8000, -60.350
 938.0000, -60.268
 938.2000, -60.308
 938.4000, -60.334
 938.6000, -60.305
 938.8000, -60.451
 939.0000, -60.410
 939.2000, -60.256
 939.4000, -60.511
 939.6000, -60.460
 939.8000, -60.275
 940.0000, -60.463
 940.2000, -60.436
 940.4000, -60.439
 940.6000, -60.456
 940.8000, -60.359
 941.0000, -60.495
 941.2000, -60.424
 941.4000, -60.582
 941.6000, -60.379
 941.8000, -60.524
 942.0000, -60.517
 942.2000, -60.511
 942.4000, -60.562
 942.6000, -60.745
 942.8000, -60.683
 943.0000, -60.663
 943.2000, -60.656
 943.4000, -60.725
 943.6000, -60.601
 943.8000, -60.538
 944.0000, -60.626
 944.2000, -60.752
 944.4000, -60.623
 944.6000, -60.852
 944.8000, -60.752
 945.0000, -60.750
 945.2000, -60.572
 945.4000, -60.658
 945.6000, -60.729
 945.8000, -60.712
 946.0000, -60.874
 946.2000, -60.723
 946.4000, -60.704
 946.6000, -60.922
 946.8000, -60.778
 947.0000, -60.786
 947.2000, -60.952
 947.4000, -60.973
 947.6000, -60.799
 947.8000, -60.908
 948.0000, -60.861
 948.2000, -60.732
 948.4000, -60.789
 948.6000, -60.924
 948.8000, -60.896
 949.0000, -60.890
 949.2000, -60.802
 949.4000, -60.880
 949.6000, -60.878
 949.8000, -60.971
 950.0000, -60.926
 950.2000, -61.076
 950.4000, -60.969
 950.6000, -60.950
 950.8000, -61.030
 951.0000, -60.982
 951.2000, -60.887
 951.4000, -61.108
 951.6000, -61.091
 951.8000, -60.987
 952.0000, -61.229
 952.2000, -61.105
 952.4000, -61.100
 952.6000, -61.188
 952.8000, -61.100
 953.0000, -61.158
 953.2000, -61.124
 953.4000, -61.196
 953.6000, -61.214
 953.8000, -61.389
 954.0000, -61.329
 954.2000, -61.298
 954.4000, -61.347
 954.6000, -61.363
 954.8000, -61.270
 955.0000, -61.325
 955.2000, -61.453
 955.4000, -61.290
 955.6000, -61.199
 955.8000, -61.452
 956.0000, -61.318
 956.2000, -61.298
 956.4000, -61.480
 956.6000, -61.469
 956.8000, -61.353
 957.0000, -61.448
 957.2000, -61.536
 957.4000, -61.534
 957.6000, -61.501
 957.8000, -61.419
 958.0000, -61.540
 958.2000, -61.576
 958.4000, -61.552
 958.6000, -61.497
 958.8000, -61.480
 959.0000, -61.583
 959.2000, -61.543
 959.4000, -61.595
 959.6000, -61.685
 959.8000, -61.699
 960.0000, -61.505
 960.2000, -61.620
 960.4000, -61.575
 960.6000, -61.582
 960.8000, -61.593
 961.0000, -61.557
 961.2000, -61.623
 961.4000, -61.441
 961.6000, -61.603
 961.8000, -61.667
 962.0000, -61.615
 962.2000, -61.642
 962.4000, -61.580
 962.6000, -61.623
 962.8000, -61.626
 963.0000, -61.529
 963.2000, -61.620
 963.4000, -61.776
 963.6000, -61.717
 963.8000, -61.867
 964.0000, -61.851
 964.2000, -61.728
 964.4000, -61.789
 964.6000, -61.699
 964.8000, -61.801
 965.0000, -61.788
 965.2000, -61.770
 965.4000, -61.874
 965.6000, -61.674
 965.8000, -61.819
 966.0000, -61.780
 966.2000, -61.826
 966.4000, -61.844
 966.6000, -61.703
 966.8000, -61.824
 967.0000, -61.908
 967.2000, -61.987
 967.4000, -61.884
 967.6000, -61.943
 967.8000, -61.916
 968.0000, -62.077
 968.2000, -62.024
 968.4000, -62.030
 968.6000, -62.179
 968.8000, -62.149
 969.0000, -62.151
 969.2000, -62.020
 969.4000, -62.004
 969.6000, -62.179
 969.8000, -62.225
 970.0000, -62.320
 970.2000, -62.273
 970.4000, -62.319
 970.6000, -62.161
 970.8000, -62.262
 971.0000, -62.324
 971.2000, -62.281
 971.4000, -62.302
 971.6000, -62.298
 971.8000, -62.299
 972.0000, -62.359
 972.2000, -62.462
 972.4000, -62.453
 972.6000, -62.527
 972.8000, -62.593
 973.0000, -62.440
 973.2000, -62.323
 973.4000, -62.526
 973.6000, -62.591
 973.8000, -62.720
 974.0000, -62.525
 974.2000, -62.552
 974.4000, -62.650
 974.6000, -62.682
 974.8000, -62.793
 975.0000, -62.906
 975.2000, -62.916
 975.4000, -62.825
 975.6000, -63.021
 975.8000, -62.911
 976.0000, -62.892
 976.2000, -63.024
 976.4000, -62.953
 976.6000, -63.054
 976.8000, -63.021
 977.0000, -62.994
 977.2000, -63.136
 977.4000, -63.122
 977.6000, -63.252
 977.8000, -63.226
 978.0000, -63.474
 978.2000, -63.206
 978.4000, -63.037
 978.6000, -63.377
 978.8000, -63.385
 979.0000, -63.358
 979.2000, -63.368
 979.4000, -63.327
 979.6000, -63.458
 979.8000, -63.458
 980.0000, -63.438
 980.2000, -63.450
 980.4000, -63.464
 980.6000, -63.522
 980.8000, -63.478
 981.0000, -63.430
 981.2000, -63.530
 981.4000, -63.314
 981.6000, -63.455
 981.8000, -63.522
 982.0000, -63.567
 982.2000, -63.551
 982.4000, -63.527
 982.6000, -63.454
 982.8000, -63.434
 983.0000, -63.355
 983.2000, -63.344
 983.4000, -63.312
 983.6000, -63.541
 983.8000, -63.291
 984.0000, -63.312
 984.2000, -63.370
 984.4000, -63.216
 984.6000, -63.492
 984.8000, -63.339
 985.0000, -63.246
 985.2000, -63.414
 985.4000, -63.430
 985.6000, -63.199
 985.8000, -63.341
 986.0000, -63.269
 986.2000, -63.136
 986.4000, -63.350
 986.6000, -63.343
 986.8000, -63.110
 987.0000, -63.209
 987.2000, -63.330
 987.4000, -63.270
 987.6000, -63.346
 987.8000, -63.180
 988.0000, -63.297
 988.2000, -63.171
 988.4000, -63.314
 988.6000, -63.262
 988.8000, -63.336
 989.0000, -63.235
 989.2000, -63.485
 989.4000, -63.238
 989.6000, -63.366
 989.8000, -63.084
 990.0000, -63.196
 990.2000, -63.304
 990.4000, -63.225
 990.6000, -63.203
 990.8000, -63.221
 991.0000, -63.137
 991.2000, -63.204
 991.4000, -63.262
 991.6000, -63.263
 991.8000, -63.256
 992.0000, -63.230
 992.2000, -63.163
 992.4000, -63.360
 992.6000, -63.578
 992.8000, -63.325
 993.0000, -63.446
 993.2000, -63.493
 993.4000, -63.436
 993.6000, -63.395
 993.8000, -63.368
 994.0000, -63.218
 994.2000, -63.460
 994.4000, -63.459
 994.6000, -63.374
 994.8000, -63.332
 995.0000, -63.478
 995.2000, -63.449
 995.4000, -63.378
 995.6000, -63.470
 995.8000, -63.676
 996.0000, -63.355
 996.2000, -63.575
 996.4000, -63.660
 996.6000, -63.638
 996.8000, -63.563
 997.0000, -63.654
 997.2000, -63.572
 997.4000, -63.775
 997.6000, -63.657
 997.8000, -63.831
 998.0000, -63.851
 998.2000, -63.881
 998.4000, -63.848
 998.6000, -63.847
 998.8000, -63.723
 999.0000, -63.927
 999.2000, -64.171
 999.4000, -64.110
 999.6000, -64.047
 999.8000, -64.187
1000.0000, -63.983
1000.2000, -63.779
1000.4000, -63.885
1000.6000, -64.003
1000.8000, -63.985
1001.0000, -64.054
1001.2000, -63.874
1001.4000, -63.891
1001.6000, -63.844
1001.8000, -63.811
1002.0000, -63.839
1002.2000, -64.002
1002.4000, -63.952
1002.6000, -63.930
1002.8000, -63.898
1003.0000, -63.869
1003.2000, -63.974
1003.4000, -64.037
1003.6000, -64.066
1003.8000, -63.969
1004.0000, -63.782
1004.2000, -63.877
1004.4000, -63.881
1004.6000, -64.167
1004.8000, -64.118
1005.0000, -63.951
1005.2000, -64.173
1005.4000, -63.947
1005.6000, -64.133
1005.8000, -64.135
1006.0000, -64.195
1006.2000, -64.216
1006.4000, -64.189
1006.6000, -64.403
1006.8000, -64.353
1007.0000, -64.424
1007.2000, -64.337
1007.4000, -64.407
1007.6000, -64.422
1007.8000, -64.536
1008.0000, -64.541
1008.2000, -64.696
1008.4000, -64.641
1008.6000, -64.912
1008.8000, -64.889
1009.0000, -64.896
1009.2000, -65.087
1009.4000, -65.137
1009.6000, -65.332
1009.8000, -65.124
1010.0000, -65.246
1010.2000, -65.226
1010.4000, -65.507
1010.6000, -65.581
1010.8000, -65.521
1011.0000, -65.495
1011.2000, -65.749
1011.4000, -65.687
1011.6000, -65.712
1011.8000, -65.640
1012.0000, -65.864
1012.2000, -65.856
1012.4000, -65.716
1012.6000, -65.505
1012.8000, -65.638
1013.0000, -65.726
1013.2000, -65.471
1013.4000, -65.604
1013.6000, -65.551
1013.8000, -65.581
1014.0000, -65.512
1014.2000, -65.376
1014.4000, -65.568
1014.6000, -65.560
1014.8000, -65.668
1015.0000, -65.513
1015.2000, -65.334
1015.4000, -65.434
1015.6000, -65.372
1015.8000, -65.356
1016.0000, -65.287
1016.2000, -65.423
1016.4000, -65.282
1016.6000, -65.134
1016.8000, -65.086
1017.0000, -65.166
1017.2000, -65.144
1017.4000, -65.118
1017.6000, -65.035
1017.8000, -64.953
1018.0000, -64.896
1018.2000, -64.859
1018.4000, -64.891
1018.6000, -64.824
1018.8000, -64.723
1019.0000, -64.855
1019.2000, -64.673
1019.4000, -64.548
1019.6000, -64.706
1019.8000, -64.554
1020.0000, -64.417
1020.2000, -64.454
1020.4000, -64.388
1020.6000, -64.177
1020.8000, -64.029
1021.0000, -64.259
1021.2000, -64.170
1021.4000, -64.158
1021.6000, -64.087
1021.8000, -64.047
1022.0000, -63.986
1022.2000, -63.798
1022.4000, -63.950
1022.6000, -63.809
1022.8000, -63.690
1023.0000, -63.717
1023.2000, -63.752
1023.4000, -63.653
1023.6000, -63.653
1023.8000, -63.452
1024.0000, -63.686
1024.2000, -63.339
1024.4000, -63.351
1024.6000, -63.273
1024.8000, -63.323
1025.0000, -63.254
1025.2000, -63.097
1025.4000, -63.233
1025.6000, -62.999
1025.8000, -62.999
1026.0000, -63.014
1026.2000, -63.032
1026.4000, -62.881
1026.6000, -62.905
1026.8000, -63.004
1027.0000, -62.851
1027.2000, -62.832
1027.4000, -62.765
1027.6000, -62.701
1027.8000, -62.621
1028.0000, -62.580
1028.2000, -62.552
1028.4000, -62.347
1028.6000, -62.400
1028.8000, -62.414
1029.0000, -62.169
1029.2000, -62.215
1029.4000, -62.322
1029.6000, -62.168
1029.8000, -62.020
1030.0000, -62.171
1030.2000, -62.176
1030.4000, -62.191
1030.6000, -62.202
1030.8000, -62.108
1031.0000, -62.247
1031.2000, -62.113
1031.4000, -61.964
1031.6000, -62.101
1031.8000, -62.010
1032.0000, -62.038
1032.2000, -61.959
1032.4000, -62.022
1032.6000, -61.766
1032.8000, -61.814
1033.0000, -61.885
1033.2000, -61.872
1033.4000, -61.808
1033.6000, -61.909
1033.8000, -61.822
1034.0000, -61.832
1034.2000, -61.661
1034.4000, -61.600
1034.6000, -61.696
1034.8000, -61.624
1035.0000, -61.620
1035.2000, -61.601
1035.4000, -61.588
1035.6000, -61.488
1035.8000, -61.559
1036.0000, -61.731
1036.2000, -61.619
1036.4000, -61.450
1036.6000, -61.414
1036.8000, -61.377
1037.0000, -61.405
1037.2000, -61.449
1037.4000, -61.512
1037.6000, -61.602
1037.8000, -61.474
1038.0000, -61.527
1038.2000, -61.443
1038.4000, -61.538
1038.6000, -61.541
1038.8000, -61.648
1039.0000, -61.585
1039.2000, -61.578
1039.4000, -61.474
1039.6000, -61.691
1039.8000, -61.472
1040.0000, -61.557
1040.2000, -61.519
1040.4000, -61.549
1040.6000, -61.630
1040.8000, -61.493
1041.0000, -61.554
1041.2000, -61.753
1041.4000, -61.627
1041.6000, -61.717
1041.8000, -61.691
1042.0000, -61.676
1042.2000, -61.539
1042.4000, -61.697
1042.6000, -61.646
1042.8000, -61.621
1043.0000, -61.697
1043.2000, -61.595
1043.4000, -61.657
1043.6000, -61.444
1043.8000, -61.713
1044.0000, -61.542
1044.2000, -61.636
1044.4000, -61.517
1044.6000, -61.521
1044.8000, -61.426
1045.0000, -61.540
1045.2000, -61.562
1045.4000, -61.476
1045.6000, -61.472
1045.8000, -61.452
1046.0000, -61.417
1046.2000, -61.285
1046.4000, -61.165
1046.6000, -61.162
1046.8000, -61.229
1047.0000, -60.836
1047.2000, -60.939
1047.4000, -60.837
1047.6000, -60.796
1047.8000, -60.585
1048.0000, -60.392
1048.2000, -60.487
1048.4000, -60.259
1048.6000, -59.817
1048.8000, -60.131
1049.0000, -59.515
1049.2000, -59.620
1049.4000, -59.810
1049.6000, -59.364
1049.8000, -59.302
1050.0000, -59.334
1050.2000, -59.396
1050.4000, -59.243
1050.6000, -59.289
1050.8000, -59.165
1051.0000, -59.047
1051.2000, -59.488
1051.4000, -59.506
1051.6000, -59.451
1051.8000, -59.645
1052.0000, -59.700
1052.2000, -59.577
1052.4000, -59.779
1052.6000, -59.964
1052.8000, -59.971
1053.0000, -60.132
1053.2000, -60.127
1053.4000, -60.081
1053.6000, -60.259
1053.8000, -60.301
1054.0000, -60.617
1054.2000, -60.599
1054.4000, -60.799
1054.6000, -60.773
1054.8000, -60.800
1055.0000, -60.858
1055.2000, -61.026
1055.4000, -61.037
1055.6000, -60.984
1055.8000, -61.109
1056.0000, -61.039
1056.2000, -61.021
1056.4000, -61.200
1056.6000, -61.141
1056.8000, -61.130
1057.0000, -61.109
1057.2000, -61.142
1057.4000, -61.151
1057.6000, -61.108
1057.8000, -61.059
1058.0000, -61.003
1058.2000, -60.778
1058.4000, -60.845
1058.6000, -60.904
1058.8000, -60.846
1059.0000, -60.828
1059.2000, -60.810
1059.4000, -60.530
1059.6000, -60.360
1059.8000, -60.211
1060.0000, -60.174
1060.2000, -59.930
1060.4000, -60.078
1060.6000, -59.792
1060.8000, -59.766
1061.0000, -59.481
1061.2000, -59.427
1061.4000, -59.409
1061.6000, -59.319
1061.8000, -59.334
1062.0000, -59.345
1062.2000, -59.115
1062.4000, -58.913
1062.6000, -58.725
1062.8000, -58.365
1063.0000, -58.223
1063.2000, -57.898
1063.4000, -57.575
1063.6000, -53.566
1063.8000, -39.961
1064.0000, -34.274
