74CSV  	
// AQ6374 OPTICAL SPECTRUM ANALYZER //                  
35
"CTRWL",1125.000000
"SPAN",1150.000000
"START WL", 550.000000
"STOP WL",1700.000000
"WLFREQ", 0
"REFL",-49.0
"LSCL", 5.0
"RESLN",2.000
"AVG",   1
"SMPLAUTO",      1
"SMPL",       2876
"SMPLINTVL",0.4000
"HIGH1"
"MEAS"
"LSUNT",0
"NMSKH","OFF"
"RESCOR",0
"SMOOTH",0
"MEASWL",1
"SWPSPD",0
"MODELNAME","AQ6374"
"CHGPT",         52
"RESCAL0_0",      10019
"RESCAL0_1",      -1240
"RESCAL0_2",    1921719
"RESCAL1_0",      10084
"RESCAL1_1",          0
"RESCAL1_2",          0
"CORESIZE", 0






"[TRACE DATA]"
 550.0000, -71.195
 550.4000, -71.240
 550.8000, -73.401
 551.2000,-210.000
 551.6000, -71.527
 552.0000,-210.000
 552.4000,-210.000
 552.8000, -76.503
 553.2000, -72.385
 553.6000,-210.000
 554.0000,-210.000
 554.4000, -80.223
 554.8000, -72.653
 555.2000,-210.000
 555.6000, -74.579
 556.0000, -68.562
 556.4000,-210.000
 556.8000,-210.000
 557.2000, -76.892
 557.6000, -74.598
 558.0000, -72.178
 558.4000,-210.000
 558.8000, -76.546
 559.2000, -71.157
 559.6000, -71.904
 560.0000, -70.246
 560.4000,-210.000
 560.8000,-210.000
 561.2000, -79.451
 561.6000,-210.000
 562.0000,-210.000
 562.4000,-210.000
 562.8000,-210.000
 563.2000, -73.813
 563.6000,-210.000
 564.0000, -76.324
 564.4000,-210.000
 564.8000,-210.000
 565.2000,-210.000
 565.6000, -70.151
 566.0000,-210.000
 566.4000,-210.000
 566.8000, -78.676
 567.2000, -67.322
 567.6000, -70.829
 568.0000, -67.519
 568.4000,-210.000
 568.8000, -71.409
 569.2000, -79.206
 569.6000,-210.000
 570.0000, -77.866
 570.4000, -78.491
 570.8000, -77.743
 571.2000, -72.711
 571.6000, -73.051
 572.0000, -73.119
 572.4000, -79.256
 572.8000, -70.827
 573.2000, -76.873
 573.6000,-210.000
 574.0000, -72.267
 574.4000, -70.400
 574.8000,-210.000
 575.2000, -69.729
 575.6000, -74.824
 576.0000, -71.964
 576.4000, -78.329
 576.8000, -70.392
 577.2000, -70.186
 577.6000, -69.062
 578.0000, -72.499
 578.4000, -70.940
 578.8000, -70.895
 579.2000, -78.170
 579.6000, -75.348
 580.0000, -70.551
 580.4000, -70.718
 580.8000, -70.480
 581.2000, -70.015
 581.6000, -72.038
 582.0000, -71.952
 582.4000, -71.607
 582.8000, -68.871
 583.2000, -69.015
 583.6000, -68.798
 584.0000, -70.103
 584.4000, -68.593
 584.8000, -67.534
 585.2000, -79.642
 585.6000, -68.222
 586.0000, -69.870
 586.4000, -71.450
 586.8000, -67.142
 587.2000, -69.778
 587.6000, -67.777
 588.0000, -67.670
 588.4000, -66.759
 588.8000, -67.091
 589.2000, -67.229
 589.6000, -67.929
 590.0000, -66.785
 590.4000, -66.911
 590.8000, -72.576
 591.2000, -67.988
 591.6000, -68.114
 592.0000, -65.968
 592.4000, -66.443
 592.8000, -67.154
 593.2000, -68.828
 593.6000, -66.686
 594.0000, -65.774
 594.4000, -67.383
 594.8000, -66.359
 595.2000, -66.934
 595.6000, -66.174
 596.0000, -67.518
 596.4000, -66.865
 596.8000, -66.706
 597.2000, -66.627
 597.6000, -65.361
 598.0000, -66.125
 598.4000, -65.486
 598.8000, -65.808
 599.2000, -65.899
 599.6000, -65.019
 600.0000, -66.200
 600.4000, -65.599
 600.8000, -65.850
 601.2000, -65.933
 601.6000, -65.131
 602.0000, -65.017
 602.4000, -64.603
 602.8000, -64.317
 603.2000, -64.566
 603.6000, -66.265
 604.0000, -64.626
 604.4000, -64.301
 604.8000, -64.531
 605.2000, -64.256
 605.6000, -64.115
 606.0000, -64.881
 606.4000, -64.334
 606.8000, -64.328
 607.2000, -63.632
 607.6000, -64.367
 608.0000, -63.766
 608.4000, -63.141
 608.8000, -63.682
 609.2000, -63.771
 609.6000, -63.664
 610.0000, -63.539
 610.4000, -63.589
 610.8000, -63.723
 611.2000, -63.193
 611.6000, -63.235
 612.0000, -63.032
 612.4000, -62.548
 612.8000, -62.461
 613.2000, -62.393
 613.6000, -62.179
 614.0000, -62.402
 614.4000, -62.084
 614.8000, -62.118
 615.2000, -61.870
 615.6000, -62.259
 616.0000, -61.831
 616.4000, -61.901
 616.8000, -61.844
 617.2000, -61.581
 617.6000, -61.395
 618.0000, -61.429
 618.4000, -61.337
 618.8000, -61.067
 619.2000, -61.035
 619.6000, -60.837
 620.0000, -60.807
 620.4000, -60.595
 620.8000, -60.643
 621.2000, -60.197
 621.6000, -60.393
 622.0000, -60.009
 622.4000, -60.122
 622.8000, -59.845
 623.2000, -59.793
 623.6000, -59.798
 624.0000, -59.547
 624.4000, -59.513
 624.8000, -59.387
 625.2000, -59.270
 625.6000, -58.871
 626.0000, -59.031
 626.4000, -58.767
 626.8000, -58.633
 627.2000, -58.659
 627.6000, -58.402
 628.0000, -58.428
 628.4000, -58.394
 628.8000, -58.042
 629.2000, -57.884
 629.6000, -57.895
 630.0000, -57.568
 630.4000, -57.597
 630.8000, -57.540
 631.2000, -57.426
 631.6000, -57.164
 632.0000, -57.103
 632.4000, -57.050
 632.8000, -56.774
 633.2000, -56.854
 633.6000, -56.618
 634.0000, -56.745
 634.4000, -56.333
 634.8000, -56.450
 635.2000, -56.221
 635.6000, -56.139
 636.0000, -56.025
 636.4000, -55.961
 636.8000, -55.796
 637.2000, -55.687
 637.6000, -55.727
 638.0000, -55.618
 638.4000, -55.432
 638.8000, -55.458
 639.2000, -55.232
 639.6000, -55.192
 640.0000, -55.012
 640.4000, -54.914
 640.8000, -54.821
 641.2000, -54.749
 641.6000, -54.740
 642.0000, -54.451
 642.4000, -54.535
 642.8000, -54.406
 643.2000, -54.185
 643.6000, -54.246
 644.0000, -54.225
 644.4000, -54.146
 644.8000, -53.899
 645.2000, -53.949
 645.6000, -53.762
 646.0000, -53.818
 646.4000, -53.663
 646.8000, -53.648
 647.2000, -53.392
 647.6000, -53.503
 648.0000, -53.320
 648.4000, -53.264
 648.8000, -53.226
 649.2000, -53.142
 649.6000, -53.068
 650.0000, -53.071
 650.4000, -52.954
 650.8000, -52.885
 651.2000, -52.836
 651.6000, -52.591
 652.0000, -52.777
 652.4000, -52.450
 652.8000, -52.585
 653.2000, -52.445
 653.6000, -52.404
 654.0000, -52.426
 654.4000, -52.275
 654.8000, -52.309
 655.2000, -52.060
 655.6000, -52.143
 656.0000, -52.028
 656.4000, -51.975
 656.8000, -51.993
 657.2000, -52.023
 657.6000, -51.858
 658.0000, -51.785
 658.4000, -51.709
 658.8000, -51.741
 659.2000, -51.643
 659.6000, -51.631
 660.0000, -51.611
 660.4000, -51.489
 660.8000, -51.486
 661.2000, -51.373
 661.6000, -51.367
 662.0000, -51.298
 662.4000, -51.355
 662.8000, -51.284
 663.2000, -51.220
 663.6000, -51.185
 664.0000, -51.050
 664.4000, -51.072
 664.8000, -50.943
 665.2000, -51.056
 665.6000, -50.851
 666.0000, -50.918
 666.4000, -50.821
 666.8000, -50.839
 667.2000, -50.630
 667.6000, -50.793
 668.0000, -50.700
 668.4000, -50.638
 668.8000, -50.650
 669.2000, -50.554
 669.6000, -50.428
 670.0000, -50.414
 670.4000, -50.425
 670.8000, -50.320
 671.2000, -50.351
 671.6000, -50.303
 672.0000, -50.322
 672.4000, -50.118
 672.8000, -50.140
 673.2000, -50.101
 673.6000, -50.102
 674.0000, -50.029
 674.4000, -49.958
 674.8000, -50.070
 675.2000, -49.836
 675.6000, -49.940
 676.0000, -49.841
 676.4000, -49.843
 676.8000, -49.807
 677.2000, -49.859
 677.6000, -49.685
 678.0000, -49.709
 678.4000, -49.712
 678.8000, -49.631
 679.2000, -49.721
 679.6000, -49.474
 680.0000, -49.607
 680.4000, -49.441
 680.8000, -49.511
 681.2000, -49.413
 681.6000, -49.421
 682.0000, -49.362
 682.4000, -49.368
 682.8000, -49.324
 683.2000, -49.265
 683.6000, -49.321
 684.0000, -49.177
 684.4000, -49.178
 684.8000, -49.090
 685.2000, -49.261
 685.6000, -49.059
 686.0000, -49.125
 686.4000, -49.010
 686.8000, -49.104
 687.2000, -48.924
 687.6000, -48.986
 688.0000, -49.022
 688.4000, -48.973
 688.8000, -49.015
 689.2000, -48.838
 689.6000, -48.968
 690.0000, -48.820
 690.4000, -48.870
 690.8000, -48.851
 691.2000, -48.933
 691.6000, -48.784
 692.0000, -48.905
 692.4000, -48.797
 692.8000, -48.690
 693.2000, -48.836
 693.6000, -48.812
 694.0000, -48.736
 694.4000, -48.674
 694.8000, -48.829
 695.2000, -48.668
 695.6000, -48.749
 696.0000, -48.561
 696.4000, -48.686
 696.8000, -48.642
 697.2000, -48.646
 697.6000, -48.633
 698.0000, -48.601
 698.4000, -48.618
 698.8000, -48.605
 699.2000, -48.703
 699.6000, -48.541
 700.0000, -48.680
 700.4000, -48.490
 700.8000, -48.586
 701.2000, -48.564
 701.6000, -48.635
 702.0000, -48.538
 702.4000, -48.527
 702.8000, -48.646
 703.2000, -48.462
 703.6000, -48.639
 704.0000, -48.454
 704.4000, -48.550
 704.8000, -48.488
 705.2000, -48.562
 705.6000, -48.447
 706.0000, -48.539
 706.4000, -48.483
 706.8000, -48.553
 707.2000, -48.532
 707.6000, -48.539
 708.0000, -48.533
 708.4000, -48.479
 708.8000, -48.594
 709.2000, -48.510
 709.6000, -48.559
 710.0000, -48.448
 710.4000, -48.542
 710.8000, -48.535
 711.2000, -48.543
 711.6000, -48.597
 712.0000, -48.552
 712.4000, -48.574
 712.8000, -48.467
 713.2000, -48.595
 713.6000, -48.492
 714.0000, -48.605
 714.4000, -48.538
 714.8000, -48.600
 715.2000, -48.550
 715.6000, -48.644
 716.0000, -48.652
 716.4000, -48.569
 716.8000, -48.663
 717.2000, -48.666
 717.6000, -48.568
 718.0000, -48.653
 718.4000, -48.764
 718.8000, -48.549
 719.2000, -48.627
 719.6000, -48.617
 720.0000, -48.675
 720.4000, -48.650
 720.8000, -48.710
 721.2000, -48.708
 721.6000, -48.592
 722.0000, -48.731
 722.4000, -48.674
 722.8000, -48.703
 723.2000, -48.683
 723.6000, -48.814
 724.0000, -48.750
 724.4000, -48.732
 724.8000, -48.845
 725.2000, -48.686
 725.6000, -48.721
 726.0000, -48.779
 726.4000, -48.882
 726.8000, -48.736
 727.2000, -48.829
 727.6000, -48.741
 728.0000, -48.810
 728.4000, -48.806
 728.8000, -48.864
 729.2000, -48.825
 729.6000, -48.798
 730.0000, -48.879
 730.4000, -48.766
 730.8000, -48.799
 731.2000, -48.900
 731.6000, -48.818
 732.0000, -48.817
 732.4000, -48.923
 732.8000, -48.954
 733.2000, -48.822
 733.6000, -48.842
 734.0000, -48.826
 734.4000, -48.847
 734.8000, -48.830
 735.2000, -48.950
 735.6000, -48.819
 736.0000, -48.949
 736.4000, -48.858
 736.8000, -48.990
 737.2000, -48.911
 737.6000, -48.922
 738.0000, -48.929
 738.4000, -48.915
 738.8000, -48.867
 739.2000, -48.931
 739.6000, -49.025
 740.0000, -48.987
 740.4000, -49.056
 740.8000, -48.994
 741.2000, -48.982
 741.6000, -48.940
 742.0000, -49.041
 742.4000, -49.021
 742.8000, -48.997
 743.2000, -48.971
 743.6000, -48.967
 744.0000, -49.039
 744.4000, -48.991
 744.8000, -49.034
 745.2000, -48.948
 745.6000, -49.057
 746.0000, -49.035
 746.4000, -49.059
 746.8000, -49.089
 747.2000, -49.054
 747.6000, -49.114
 748.0000, -49.062
 748.4000, -49.166
 748.8000, -49.113
 749.2000, -49.078
 749.6000, -49.104
 750.0000, -49.175
 750.4000, -49.049
 750.8000, -49.033
 751.2000, -49.115
 751.6000, -49.079
 752.0000, -49.181
 752.4000, -49.176
 752.8000, -49.186
 753.2000, -49.143
 753.6000, -49.179
 754.0000, -49.189
 754.4000, -49.172
 754.8000, -49.127
 755.2000, -49.095
 755.6000, -49.184
 756.0000, -49.192
 756.4000, -49.202
 756.8000, -49.155
 757.2000, -49.149
 757.6000, -49.119
 758.0000, -49.242
 758.4000, -49.184
 758.8000, -49.212
 759.2000, -49.225
 759.6000, -49.221
 760.0000, -49.252
 760.4000, -49.234
 760.8000, -49.342
 761.2000, -49.224
 761.6000, -49.280
 762.0000, -49.361
 762.4000, -49.314
 762.8000, -49.294
 763.2000, -49.408
 763.6000, -49.324
 764.0000, -49.334
 764.4000, -49.386
 764.8000, -49.267
 765.2000, -49.401
 765.6000, -49.369
 766.0000, -49.403
 766.4000, -49.320
 766.8000, -49.460
 767.2000, -49.562
 767.6000, -49.395
 768.0000, -49.460
 768.4000, -49.482
 768.8000, -49.496
 769.2000, -49.398
 769.6000, -49.435
 770.0000, -49.517
 770.4000, -49.508
 770.8000, -49.537
 771.2000, -49.566
 771.6000, -49.540
 772.0000, -49.509
 772.4000, -49.643
 772.8000, -49.589
 773.2000, -49.612
 773.6000, -49.581
 774.0000, -49.639
 774.4000, -49.703
 774.8000, -49.589
 775.2000, -49.598
 775.6000, -49.690
 776.0000, -49.778
 776.4000, -49.722
 776.8000, -49.723
 777.2000, -49.610
 777.6000, -49.744
 778.0000, -49.733
 778.4000, -49.777
 778.8000, -49.838
 779.2000, -49.827
 779.6000, -49.805
 780.0000, -49.860
 780.4000, -49.821
 780.8000, -49.789
 781.2000, -49.891
 781.6000, -49.837
 782.0000, -49.875
 782.4000, -49.767
 782.8000, -49.881
 783.2000, -49.931
 783.6000, -49.960
 784.0000, -50.015
 784.4000, -49.954
 784.8000, -49.999
 785.2000, -50.048
 785.6000, -50.173
 786.0000, -50.010
 786.4000, -50.043
 786.8000, -50.141
 787.2000, -50.080
 787.6000, -50.113
 788.0000, -50.115
 788.4000, -50.175
 788.8000, -50.099
 789.2000, -50.244
 789.6000, -50.203
 790.0000, -50.292
 790.4000, -50.248
 790.8000, -50.335
 791.2000, -50.308
 791.6000, -50.275
 792.0000, -50.302
 792.4000, -50.328
 792.8000, -50.357
 793.2000, -50.297
 793.6000, -50.305
 794.0000, -50.477
 794.4000, -50.520
 794.8000, -50.475
 795.2000, -50.483
 795.6000, -50.543
 796.0000, -50.536
 796.4000, -50.527
 796.8000, -50.638
 797.2000, -50.696
 797.6000, -50.595
 798.0000, -50.725
 798.4000, -50.614
 798.8000, -50.763
 799.2000, -50.687
 799.6000, -50.735
 800.0000, -50.701
 800.4000, -50.857
 800.8000, -50.854
 801.2000, -50.826
 801.6000, -50.855
 802.0000, -50.875
 802.4000, -50.916
 802.8000, -50.936
 803.2000, -50.927
 803.6000, -50.966
 804.0000, -50.931
 804.4000, -50.991
 804.8000, -51.054
 805.2000, -51.041
 805.6000, -50.982
 806.0000, -51.059
 806.4000, -51.089
 806.8000, -51.068
 807.2000, -51.087
 807.6000, -51.116
 808.0000, -51.096
 808.4000, -51.104
 808.8000, -51.152
 809.2000, -51.152
 809.6000, -51.392
 810.0000, -51.366
 810.4000, -51.375
 810.8000, -51.267
 811.2000, -51.289
 811.6000, -51.443
 812.0000, -51.510
 812.4000, -51.493
 812.8000, -51.545
 813.2000, -51.483
 813.6000, -51.583
 814.0000, -51.499
 814.4000, -51.502
 814.8000, -51.584
 815.2000, -51.623
 815.6000, -51.576
 816.0000, -51.709
 816.4000, -51.629
 816.8000, -51.774
 817.2000, -51.698
 817.6000, -51.867
 818.0000, -51.825
 818.4000, -51.771
 818.8000, -51.839
 819.2000, -51.729
 819.6000, -51.849
 820.0000, -51.759
 820.4000, -51.940
 820.8000, -51.946
 821.2000, -51.935
 821.6000, -51.925
 822.0000, -51.952
 822.4000, -52.070
 822.8000, -52.005
 823.2000, -52.042
 823.6000, -52.074
 824.0000, -52.069
 824.4000, -52.106
 824.8000, -52.163
 825.2000, -52.071
 825.6000, -52.084
 826.0000, -52.193
 826.4000, -52.100
 826.8000, -52.229
 827.2000, -52.246
 827.6000, -52.201
 828.0000, -52.329
 828.4000, -52.340
 828.8000, -52.264
 829.2000, -52.365
 829.6000, -52.413
 830.0000, -52.408
 830.4000, -52.440
 830.8000, -52.444
 831.2000, -52.485
 831.6000, -52.425
 832.0000, -52.455
 832.4000, -52.606
 832.8000, -52.528
 833.2000, -52.585
 833.6000, -52.583
 834.0000, -52.583
 834.4000, -52.578
 834.8000, -52.659
 835.2000, -52.645
 835.6000, -52.676
 836.0000, -52.701
 836.4000, -52.764
 836.8000, -52.797
 837.2000, -52.784
 837.6000, -52.764
 838.0000, -52.749
 838.4000, -52.759
 838.8000, -52.730
 839.2000, -52.815
 839.6000, -52.846
 840.0000, -52.802
 840.4000, -52.883
 840.8000, -52.892
 841.2000, -52.916
 841.6000, -52.984
 842.0000, -53.015
 842.4000, -52.919
 842.8000, -53.029
 843.2000, -53.020
 843.6000, -53.128
 844.0000, -52.979
 844.4000, -53.082
 844.8000, -53.119
 845.2000, -53.152
 845.6000, -53.128
 846.0000, -53.173
 846.4000, -53.197
 846.8000, -53.233
 847.2000, -53.180
 847.6000, -53.178
 848.0000, -53.292
 848.4000, -53.251
 848.8000, -53.319
 849.2000, -53.310
 849.6000, -53.303
 850.0000, -53.403
 850.4000, -53.350
 850.8000, -53.331
 851.2000, -53.336
 851.6000, -53.456
 852.0000, -53.455
 852.4000, -53.431
 852.8000, -53.473
 853.2000, -53.470
 853.6000, -53.531
 854.0000, -53.499
 854.4000, -53.522
 854.8000, -53.611
 855.2000, -53.601
 855.6000, -53.642
 856.0000, -53.594
 856.4000, -53.636
 856.8000, -53.610
 857.2000, -53.633
 857.6000, -53.720
 858.0000, -53.718
 858.4000, -53.683
 858.8000, -53.716
 859.2000, -53.736
 859.6000, -53.891
 860.0000, -53.808
 860.4000, -53.783
 860.8000, -53.883
 861.2000, -53.828
 861.6000, -53.915
 862.0000, -53.846
 862.4000, -53.874
 862.8000, -54.007
 863.2000, -53.855
 863.6000, -53.959
 864.0000, -53.968
 864.4000, -54.027
 864.8000, -54.068
 865.2000, -54.040
 865.6000, -53.972
 866.0000, -54.000
 866.4000, -54.082
 866.8000, -54.069
 867.2000, -54.069
 867.6000, -54.212
 868.0000, -54.114
 868.4000, -54.147
 868.8000, -54.234
 869.2000, -54.164
 869.6000, -54.198
 870.0000, -54.162
 870.4000, -54.166
 870.8000, -54.285
 871.2000, -54.320
 871.6000, -54.270
 872.0000, -54.254
 872.4000, -54.291
 872.8000, -54.375
 873.2000, -54.377
 873.6000, -54.317
 874.0000, -54.371
 874.4000, -54.367
 874.8000, -54.376
 875.2000, -54.352
 875.6000, -54.377
 876.0000, -54.358
 876.4000, -54.548
 876.8000, -54.436
 877.2000, -54.499
 877.6000, -54.529
 878.0000, -54.543
 878.4000, -54.544
 878.8000, -54.587
 879.2000, -54.691
 879.6000, -54.532
 880.0000, -54.617
 880.4000, -54.613
 880.8000, -54.570
 881.2000, -54.570
 881.6000, -54.693
 882.0000, -54.558
 882.4000, -54.621
 882.8000, -54.720
 883.2000, -54.703
 883.6000, -54.783
 884.0000, -54.692
 884.4000, -54.701
 884.8000, -54.708
 885.2000, -54.752
 885.6000, -54.878
 886.0000, -54.835
 886.4000, -54.881
 886.8000, -54.757
 887.2000, -54.953
 887.6000, -54.806
 888.0000, -54.823
 888.4000, -54.895
 888.8000, -54.853
 889.2000, -54.940
 889.6000, -54.969
 890.0000, -54.906
 890.4000, -54.916
 890.8000, -54.992
 891.2000, -54.923
 891.6000, -55.049
 892.0000, -55.118
 892.4000, -55.065
 892.8000, -55.087
 893.2000, -55.127
 893.6000, -55.121
 894.0000, -55.090
 894.4000, -55.022
 894.8000, -55.239
 895.2000, -55.133
 895.6000, -55.209
 896.0000, -55.200
 896.4000, -55.314
 896.8000, -55.259
 897.2000, -55.242
 897.6000, -55.157
 898.0000, -55.243
 898.4000, -55.264
 898.8000, -55.229
 899.2000, -55.316
 899.6000, -55.316
 900.0000, -55.345
 900.4000, -55.373
 900.8000, -55.247
 901.2000, -55.274
 901.6000, -55.417
 902.0000, -55.339
 902.4000, -55.417
 902.8000, -55.372
 903.2000, -55.364
 903.6000, -55.271
 904.0000, -55.435
 904.4000, -55.405
 904.8000, -55.595
 905.2000, -55.447
 905.6000, -55.472
 906.0000, -55.461
 906.4000, -55.495
 906.8000, -55.515
 907.2000, -55.519
 907.6000, -55.563
 908.0000, -55.599
 908.4000, -55.665
 908.8000, -55.624
 909.2000, -55.597
 909.6000, -55.528
 910.0000, -55.693
 910.4000, -55.641
 910.8000, -55.674
 911.2000, -55.651
 911.6000, -55.799
 912.0000, -55.751
 912.4000, -55.674
 912.8000, -55.764
 913.2000, -55.696
 913.6000, -55.697
 914.0000, -55.769
 914.4000, -55.810
 914.8000, -55.753
 915.2000, -55.750
 915.6000, -55.858
 916.0000, -55.805
 916.4000, -55.825
 916.8000, -55.779
 917.2000, -55.893
 917.6000, -55.827
 918.0000, -55.892
 918.4000, -56.034
 918.8000, -55.942
 919.2000, -55.971
 919.6000, -55.928
 920.0000, -55.998
 920.4000, -55.990
 920.8000, -56.053
 921.2000, -55.960
 921.6000, -56.098
 922.0000, -55.979
 922.4000, -56.085
 922.8000, -56.160
 923.2000, -56.091
 923.6000, -56.125
 924.0000, -56.099
 924.4000, -56.123
 924.8000, -56.055
 925.2000, -56.205
 925.6000, -56.177
 926.0000, -56.334
 926.4000, -56.200
 926.8000, -56.202
 927.2000, -56.276
 927.6000, -56.340
 928.0000, -56.248
 928.4000, -56.351
 928.8000, -56.365
 929.2000, -56.400
 929.6000, -56.366
 930.0000, -56.445
 930.4000, -56.491
 930.8000, -56.393
 931.2000, -56.519
 931.6000, -56.504
 932.0000, -56.335
 932.4000, -56.514
 932.8000, -56.496
 933.2000, -56.567
 933.6000, -56.545
 934.0000, -56.670
 934.4000, -56.657
 934.8000, -56.612
 935.2000, -56.811
 935.6000, -56.739
 936.0000, -56.784
 936.4000, -56.642
 936.8000, -56.738
 937.2000, -56.836
 937.6000, -56.728
 938.0000, -56.816
 938.4000, -56.866
 938.8000, -56.869
 939.2000, -56.892
 939.6000, -56.999
 940.0000, -56.938
 940.4000, -56.959
 940.8000, -56.961
 941.2000, -57.022
 941.6000, -57.142
 942.0000, -57.133
 942.4000, -57.175
 942.8000, -57.224
 943.2000, -57.136
 943.6000, -57.228
 944.0000, -57.241
 944.4000, -57.142
 944.8000, -57.291
 945.2000, -57.269
 945.6000, -57.271
 946.0000, -57.260
 946.4000, -57.210
 946.8000, -57.337
 947.2000, -57.309
 947.6000, -57.361
 948.0000, -57.459
 948.4000, -57.362
 948.8000, -57.356
 949.2000, -57.358
 949.6000, -57.397
 950.0000, -57.483
 950.4000, -57.522
 950.8000, -57.472
 951.2000, -57.603
 951.6000, -57.521
 952.0000, -57.550
 952.4000, -57.582
 952.8000, -57.570
 953.2000, -57.588
 953.6000, -57.618
 954.0000, -57.632
 954.4000, -57.743
 954.8000, -57.873
 955.2000, -57.901
 955.6000, -58.000
 956.0000, -57.915
 956.4000, -57.861
 956.8000, -57.832
 957.2000, -58.106
 957.6000, -57.883
 958.0000, -57.856
 958.4000, -57.968
 958.8000, -57.911
 959.2000, -57.999
 959.6000, -58.029
 960.0000, -58.133
 960.4000, -58.070
 960.8000, -57.899
 961.2000, -58.004
 961.6000, -57.997
 962.0000, -58.169
 962.4000, -58.126
 962.8000, -58.032
 963.2000, -58.124
 963.6000, -58.078
 964.0000, -58.132
 964.4000, -58.234
 964.8000, -58.233
 965.2000, -58.216
 965.6000, -58.298
 966.0000, -58.198
 966.4000, -58.184
 966.8000, -58.280
 967.2000, -58.317
 967.6000, -58.369
 968.0000, -58.490
 968.4000, -58.448
 968.8000, -58.512
 969.2000, -58.488
 969.6000, -58.645
 970.0000, -58.491
 970.4000, -58.634
 970.8000, -58.679
 971.2000, -58.696
 971.6000, -58.702
 972.0000, -58.753
 972.4000, -58.830
 972.8000, -58.785
 973.2000, -58.826
 973.6000, -58.976
 974.0000, -59.014
 974.4000, -59.115
 974.8000, -59.094
 975.2000, -59.159
 975.6000, -59.209
 976.0000, -59.375
 976.4000, -59.434
 976.8000, -59.516
 977.2000, -59.589
 977.6000, -59.515
 978.0000, -59.654
 978.4000, -59.710
 978.8000, -59.680
 979.2000, -59.777
 979.6000, -59.843
 980.0000, -59.840
 980.4000, -59.996
 980.8000, -59.775
 981.2000, -59.838
 981.6000, -59.842
 982.0000, -59.903
 982.4000, -59.859
 982.8000, -59.749
 983.2000, -59.684
 983.6000, -59.766
 984.0000, -59.557
 984.4000, -59.735
 984.8000, -59.756
 985.2000, -59.647
 985.6000, -59.603
 986.0000, -59.606
 986.4000, -59.656
 986.8000, -59.513
 987.2000, -59.638
 987.6000, -59.540
 988.0000, -59.523
 988.4000, -59.556
 988.8000, -59.508
 989.2000, -59.578
 989.6000, -59.570
 990.0000, -59.561
 990.4000, -59.667
 990.8000, -59.673
 991.2000, -59.652
 991.6000, -59.578
 992.0000, -59.586
 992.4000, -59.602
 992.8000, -59.668
 993.2000, -59.567
 993.6000, -59.694
 994.0000, -59.707
 994.4000, -59.557
 994.8000, -59.663
 995.2000, -59.708
 995.6000, -59.732
 996.0000, -59.833
 996.4000, -59.902
 996.8000, -59.873
 997.2000, -59.976
 997.6000, -60.103
 998.0000, -60.146
 998.4000, -60.057
 998.8000, -60.191
 999.2000, -60.236
 999.6000, -60.284
1000.0000, -60.352
1000.4000, -60.352
1000.8000, -60.357
1001.2000, -60.215
1001.6000, -60.380
1002.0000, -60.338
1002.4000, -60.345
1002.8000, -60.304
1003.2000, -60.317
1003.6000, -60.282
1004.0000, -60.245
1004.4000, -60.345
1004.8000, -60.364
1005.2000, -60.421
1005.6000, -60.420
1006.0000, -60.500
1006.4000, -60.540
1006.8000, -60.624
1007.2000, -60.726
1007.6000, -60.874
1008.0000, -60.947
1008.4000, -61.085
1008.8000, -61.242
1009.2000, -61.390
1009.6000, -61.511
1010.0000, -61.611
1010.4000, -61.672
1010.8000, -61.808
1011.2000, -61.883
1011.6000, -61.968
1012.0000, -61.972
1012.4000, -62.117
1012.8000, -61.886
1013.2000, -61.820
1013.6000, -61.803
1014.0000, -61.844
1014.4000, -61.885
1014.8000, -61.811
1015.2000, -61.694
1015.6000, -61.575
1016.0000, -61.642
1016.4000, -61.584
1016.8000, -61.321
1017.2000, -61.388
1017.6000, -61.357
1018.0000, -61.176
1018.4000, -61.174
1018.8000, -61.072
1019.2000, -60.977
1019.6000, -60.828
1020.0000, -60.738
1020.4000, -60.645
1020.8000, -60.610
1021.2000, -60.508
1021.6000, -60.294
1022.0000, -60.277
1022.4000, -60.162
1022.8000, -60.135
1023.2000, -60.048
1023.6000, -59.947
1024.0000, -59.853
1024.4000, -59.754
1024.8000, -59.637
1025.2000, -59.584
1025.6000, -59.512
1026.0000, -59.286
1026.4000, -59.207
1026.8000, -59.216
1027.2000, -59.072
1027.6000, -59.055
1028.0000, -58.944
1028.4000, -58.638
1028.8000, -58.683
1029.2000, -58.584
1029.6000, -58.508
1030.0000, -58.466
1030.4000, -58.516
1030.8000, -58.518
1031.2000, -58.344
1031.6000, -58.353
1032.0000, -58.333
1032.4000, -58.290
1032.8000, -58.181
1033.2000, -58.125
1033.6000, -58.154
1034.0000, -58.043
1034.4000, -58.098
1034.8000, -57.918
1035.2000, -57.893
1035.6000, -57.888
1036.0000, -57.858
1036.4000, -57.766
1036.8000, -57.897
1037.2000, -57.770
1037.6000, -57.747
1038.0000, -57.759
1038.4000, -57.800
1038.8000, -57.921
1039.2000, -57.975
1039.6000, -57.941
1040.0000, -57.886
1040.4000, -57.897
1040.8000, -57.886
1041.2000, -57.909
1041.6000, -57.925
1042.0000, -57.900
1042.4000, -57.943
1042.8000, -57.921
1043.2000, -57.922
1043.6000, -57.924
1044.0000, -57.851
1044.4000, -57.907
1044.8000, -57.833
1045.2000, -57.743
1045.6000, -57.757
1046.0000, -57.711
1046.4000, -57.540
1046.8000, -57.481
1047.2000, -57.121
1047.6000, -56.840
1048.0000, -56.736
1048.4000, -56.535
1048.8000, -56.205
1049.2000, -55.765
1049.6000, -55.783
1050.0000, -55.446
1050.4000, -55.402
1050.8000, -55.654
1051.2000, -55.689
1051.6000, -55.659
1052.0000, -55.952
1052.4000, -55.999
1052.8000, -56.221
1053.2000, -56.431
1053.6000, -56.536
1054.0000, -56.684
1054.4000, -56.807
1054.8000, -57.135
1055.2000, -57.184
1055.6000, -57.264
1056.0000, -57.361
1056.4000, -57.387
1056.8000, -57.406
1057.2000, -57.299
1057.6000, -57.437
1058.0000, -57.298
1058.4000, -57.114
1058.8000, -56.995
1059.2000, -56.846
1059.6000, -56.780
1060.0000, -56.488
1060.4000, -56.271
1060.8000, -56.084
1061.2000, -55.788
1061.6000, -55.449
1062.0000, -55.206
1062.4000, -54.780
1062.8000, -54.311
1063.2000, -44.028
1063.6000, -33.166
1064.0000, -32.563
1064.4000, -32.556
1064.8000, -32.510
1065.2000, -32.613
1065.6000, -37.589
1066.0000, -54.990
1066.4000, -54.500
1066.8000, -54.715
1067.2000, -54.677
1067.6000, -54.735
1068.0000, -54.976
1068.4000, -55.262
1068.8000, -55.198
1069.2000, -55.413
1069.6000, -55.415
1070.0000, -55.444
1070.4000, -55.638
1070.8000, -55.600
1071.2000, -55.684
1071.6000, -55.683
1072.0000, -55.575
1072.4000, -55.536
1072.8000, -55.449
1073.2000, -55.404
1073.6000, -55.118
1074.0000, -55.055
1074.4000, -54.865
1074.8000, -54.717
1075.2000, -54.521
1075.6000, -54.257
1076.0000, -53.953
1076.4000, -53.749
1076.8000, -53.791
1077.2000, -53.514
1077.6000, -53.149
1078.0000, -52.973
1078.4000, -52.856
1078.8000, -52.576
1079.2000, -52.490
1079.6000, -52.305
1080.0000, -52.250
1080.4000, -52.268
1080.8000, -52.255
1081.2000, -52.304
1081.6000, -52.572
1082.0000, -52.531
1082.4000, -52.610
1082.8000, -52.801
1083.2000, -53.027
1083.6000, -53.011
1084.0000, -53.397
1084.4000, -53.610
1084.8000, -53.635
1085.2000, -53.650
1085.6000, -53.842
1086.0000, -54.048
1086.4000, -54.219
1086.8000, -54.190
1087.2000, -54.353
1087.6000, -54.469
1088.0000, -54.522
1088.4000, -54.417
1088.8000, -54.441
1089.2000, -54.492
1089.6000, -54.434
1090.0000, -54.376
1090.4000, -54.370
1090.8000, -54.287
1091.2000, -54.217
1091.6000, -54.256
1092.0000, -54.146
1092.4000, -54.001
1092.8000, -54.065
1093.2000, -54.007
1093.6000, -54.004
1094.0000, -53.800
1094.4000, -53.788
1094.8000, -53.729
1095.2000, -53.644
1095.6000, -53.633
1096.0000, -53.580
1096.4000, -53.485
1096.8000, -53.454
1097.2000, -53.326
1097.6000, -53.274
1098.0000, -53.312
1098.4000, -53.120
1098.8000, -53.146
1099.2000, -53.169
1099.6000, -53.016
1100.0000, -53.175
1100.4000, -53.074
1100.8000, -52.946
1101.2000, -53.103
1101.6000, -53.100
1102.0000, -53.038
1102.4000, -52.937
1102.8000, -53.067
1103.2000, -53.150
1103.6000, -53.115
1104.0000, -53.087
1104.4000, -53.118
1104.8000, -53.159
1105.2000, -53.145
1105.6000, -53.081
1106.0000, -53.171
1106.4000, -53.028
1106.8000, -53.050
1107.2000, -53.081
1107.6000, -53.011
1108.0000, -52.847
1108.4000, -52.780
1108.8000, -52.826
1109.2000, -52.745
1109.6000, -52.656
1110.0000, -52.718
1110.4000, -52.761
1110.8000, -52.649
1111.2000, -52.697
1111.6000, -52.584
1112.0000, -52.617
1112.4000, -52.625
1112.8000, -52.560
1113.2000, -52.530
1113.6000, -52.586
1114.0000, -52.625
1114.4000, -52.537
1114.8000, -52.455
1115.2000, -52.532
1115.6000, -52.538
1116.0000, -52.621
1116.4000, -52.613
1116.8000, -52.435
1117.2000, -52.602
1117.6000, -52.476
1118.0000, -52.587
1118.4000, -52.568
1118.8000, -52.589
1119.2000, -52.648
1119.6000, -52.691
1120.0000, -52.711
1120.4000, -52.717
1120.8000, -52.716
1121.2000, -52.746
1121.6000, -52.753
1122.0000, -52.689
1122.4000, -52.690
1122.8000, -52.812
1123.2000, -52.745
1123.6000, -52.832
1124.0000, -52.862
1124.4000, -52.962
1124.8000, -53.062
1125.2000, -53.064
1125.6000, -53.170
1126.0000, -53.299
1126.4000, -53.345
1126.8000, -53.350
1127.2000, -53.432
1127.6000, -53.491
1128.0000, -53.513
1128.4000, -53.636
1128.8000, -53.580
1129.2000, -53.669
1129.6000, -53.714
1130.0000, -53.743
1130.4000, -53.692
1130.8000, -53.721
1131.2000, -53.869
1131.6000, -53.661
1132.0000, -53.886
1132.4000, -53.964
1132.8000, -53.936
1133.2000, -53.979
1133.6000, -54.042
1134.0000, -54.039
1134.4000, -54.019
1134.8000, -54.021
1135.2000, -54.237
1135.6000, -54.157
1136.0000, -54.131
1136.4000, -54.189
1136.8000, -54.269
1137.2000, -54.256
1137.6000, -54.228
1138.0000, -54.264
1138.4000, -54.332
1138.8000, -54.350
1139.2000, -54.329
1139.6000, -54.405
1140.0000, -54.472
1140.4000, -54.484
1140.8000, -54.583
1141.2000, -54.654
1141.6000, -54.600
1142.0000, -54.673
1142.4000, -54.691
1142.8000, -54.708
1143.2000, -54.676
1143.6000, -54.766
1144.0000, -54.819
1144.4000, -54.950
1144.8000, -54.866
1145.2000, -55.005
1145.6000, -55.017
1146.0000, -55.035
1146.4000, -55.013
1146.8000, -55.047
1147.2000, -55.003
1147.6000, -55.012
1148.0000, -55.147
1148.4000, -55.011
1148.8000, -55.115
1149.2000, -55.148
1149.6000, -55.093
1150.0000, -55.108
1150.4000, -55.140
1150.8000, -55.157
1151.2000, -55.222
1151.6000, -55.216
1152.0000, -55.262
1152.4000, -55.212
1152.8000, -55.215
1153.2000, -55.288
1153.6000, -55.291
1154.0000, -55.272
1154.4000, -55.361
1154.8000, -55.224
1155.2000, -55.335
1155.6000, -55.319
1156.0000, -55.308
1156.4000, -55.226
1156.8000, -55.358
1157.2000, -55.369
1157.6000, -55.318
1158.0000, -55.350
1158.4000, -55.364
1158.8000, -55.410
1159.2000, -55.522
1159.6000, -55.328
1160.0000, -55.379
1160.4000, -55.335
1160.8000, -55.304
1161.2000, -55.264
1161.6000, -55.268
1162.0000, -55.418
1162.4000, -55.317
1162.8000, -55.418
1163.2000, -55.338
1163.6000, -55.353
1164.0000, -55.332
1164.4000, -55.372
1164.8000, -55.353
1165.2000, -55.342
1165.6000, -55.421
1166.0000, -55.399
1166.4000, -55.414
1166.8000, -55.422
1167.2000, -55.503
1167.6000, -55.395
1168.0000, -55.508
1168.4000, -55.509
1168.8000, -55.400
1169.2000, -55.527
1169.6000, -55.570
1170.0000, -55.472
1170.4000, -55.525
1170.8000, -55.593
1171.2000, -55.732
1171.6000, -55.710
1172.0000, -55.685
1172.4000, -55.657
1172.8000, -55.809
1173.2000, -55.775
1173.6000, -55.768
1174.0000, -55.834
1174.4000, -55.841
1174.8000, -55.902
1175.2000, -55.906
1175.6000, -55.881
1176.0000, -56.062
1176.4000, -55.919
1176.8000, -56.000
1177.2000, -55.996
1177.6000, -56.021
1178.0000, -56.084
1178.4000, -56.189
1178.8000, -56.045
1179.2000, -56.083
1179.6000, -56.216
1180.0000, -56.196
1180.4000, -56.172
1180.8000, -56.132
1181.2000, -56.237
1181.6000, -56.295
1182.0000, -56.282
1182.4000, -56.368
1182.8000, -56.382
1183.2000, -56.424
1183.6000, -56.312
1184.0000, -56.530
1184.4000, -56.511
1184.8000, -56.483
1185.2000, -56.626
1185.6000, -56.502
1186.0000, -56.553
1186.4000, -56.521
1186.8000, -56.540
1187.2000, -56.622
1187.6000, -56.733
1188.0000, -56.666
1188.4000, -56.612
1188.8000, -56.736
1189.2000, -56.903
1189.6000, -56.755
1190.0000, -56.733
1190.4000, -56.786
1190.8000, -56.878
1191.2000, -56.962
1191.6000, -56.991
1192.0000, -56.869
1192.4000, -56.995
1192.8000, -56.927
1193.2000, -56.831
1193.6000, -57.008
1194.0000, -57.008
1194.4000, -57.162
1194.8000, -56.980
1195.2000, -57.147
1195.6000, -57.235
1196.0000, -57.128
1196.4000, -57.207
1196.8000, -57.210
1197.2000, -57.216
1197.6000, -57.199
1198.0000, -57.184
1198.4000, -57.272
1198.8000, -57.350
1199.2000, -57.232
1199.6000, -57.342
1200.0000, -57.376
1200.4000, -57.446
1200.8000, -57.312
1201.2000, -57.385
1201.6000, -57.520
1202.0000, -57.492
1202.4000, -57.445
1202.8000, -57.487
1203.2000, -57.488
1203.6000, -57.557
1204.0000, -57.574
1204.4000, -57.753
1204.8000, -57.565
1205.2000, -57.504
1205.6000, -57.713
1206.0000, -57.714
1206.4000, -57.724
1206.8000, -57.773
1207.2000, -57.807
1207.6000, -57.638
1208.0000, -57.611
1208.4000, -57.833
1208.8000, -57.893
1209.2000, -57.780
1209.6000, -57.877
1210.0000, -57.993
1210.4000, -57.873
1210.8000, -57.967
1211.2000, -57.988
1211.6000, -57.891
1212.0000, -58.091
1212.4000, -57.961
1212.8000, -57.971
1213.2000, -57.906
1213.6000, -58.065
1214.0000, -58.121
1214.4000, -58.033
1214.8000, -58.023
1215.2000, -58.099
1215.6000, -58.203
1216.0000, -58.211
1216.4000, -58.180
1216.8000, -58.172
1217.2000, -58.245
1217.6000, -58.342
1218.0000, -58.424
1218.4000, -58.193
1218.8000, -58.364
1219.2000, -58.437
1219.6000, -58.449
1220.0000, -58.349
1220.4000, -58.422
1220.8000, -58.434
1221.2000, -58.433
1221.6000, -58.427
1222.0000, -58.557
1222.4000, -58.479
1222.8000, -58.462
1223.2000, -58.483
1223.6000, -58.589
1224.0000, -58.505
1224.4000, -58.598
1224.8000, -58.650
1225.2000, -58.598
1225.6000, -58.594
1226.0000, -58.566
1226.4000, -58.670
1226.8000, -58.652
1227.2000, -58.602
1227.6000, -58.689
1228.0000, -58.795
1228.4000, -58.698
1228.8000, -58.871
1229.2000, -58.793
1229.6000, -58.756
1230.0000, -58.841
1230.4000, -58.846
1230.8000, -58.909
1231.2000, -58.981
1231.6000, -58.973
1232.0000, -58.988
1232.4000, -58.997
1232.8000, -59.052
1233.2000, -58.959
1233.6000, -59.077
1234.0000, -59.029
1234.4000, -59.154
1234.8000, -59.061
1235.2000, -59.249
1235.6000, -59.369
1236.0000, -59.215
1236.4000, -59.179
1236.8000, -59.267
1237.2000, -59.250
1237.6000, -59.358
1238.0000, -59.230
1238.4000, -59.444
1238.8000, -59.232
1239.2000, -59.328
1239.6000, -59.496
1240.0000, -59.476
1240.4000, -59.403
1240.8000, -59.459
1241.2000, -59.497
1241.6000, -59.515
1242.0000, -59.563
1242.4000, -59.595
1242.8000, -59.572
1243.2000, -59.537
1243.6000, -59.607
1244.0000, -59.597
1244.4000, -59.700
1244.8000, -59.744
1245.2000, -59.656
1245.6000, -59.868
1246.0000, -59.736
1246.4000, -59.726
1246.8000, -59.768
1247.2000, -59.800
1247.6000, -59.906
1248.0000, -59.863
1248.4000, -59.821
1248.8000, -59.891
1249.2000, -59.858
1249.6000, -59.896
1250.0000, -59.992
1250.4000, -60.043
1250.8000, -59.945
1251.2000, -59.966
1251.6000, -60.090
1252.0000, -60.149
1252.4000, -60.106
1252.8000, -60.173
1253.2000, -60.130
1253.6000, -60.133
1254.0000, -60.253
1254.4000, -60.060
1254.8000, -60.169
1255.2000, -60.211
1255.6000, -60.244
1256.0000, -60.167
1256.4000, -60.257
1256.8000, -60.265
1257.2000, -60.265
1257.6000, -60.228
1258.0000, -60.453
1258.4000, -60.271
1258.8000, -60.403
1259.2000, -60.446
1259.6000, -60.334
1260.0000, -60.417
1260.4000, -60.446
1260.8000, -60.394
1261.2000, -60.579
1261.6000, -60.552
1262.0000, -60.436
1262.4000, -60.524
1262.8000, -60.506
1263.2000, -60.491
1263.6000, -60.540
1264.0000, -60.530
1264.4000, -60.613
1264.8000, -60.671
1265.2000, -60.678
1265.6000, -60.644
1266.0000, -60.622
1266.4000, -60.677
1266.8000, -60.658
1267.2000, -60.660
1267.6000, -60.802
1268.0000, -60.700
1268.4000, -60.720
1268.8000, -60.742
1269.2000, -60.793
1269.6000, -60.890
1270.0000, -60.846
1270.4000, -60.828
1270.8000, -60.886
1271.2000, -60.922
1271.6000, -61.041
1272.0000, -61.097
1272.4000, -60.938
1272.8000, -60.997
1273.2000, -60.948
1273.6000, -61.150
1274.0000, -61.035
1274.4000, -61.028
1274.8000, -61.136
1275.2000, -61.051
1275.6000, -61.140
1276.0000, -61.110
1276.4000, -61.100
1276.8000, -61.041
1277.2000, -61.161
1277.6000, -61.284
1278.0000, -61.285
1278.4000, -61.163
1278.8000, -61.197
1279.2000, -61.368
1279.6000, -61.260
1280.0000, -61.380
1280.4000, -61.207
1280.8000, -61.405
1281.2000, -61.279
1281.6000, -61.495
1282.0000, -61.345
1282.4000, -61.391
1282.8000, -61.441
1283.2000, -61.505
1283.6000, -61.473
1284.0000, -61.389
1284.4000, -61.480
1284.8000, -61.497
1285.2000, -61.486
1285.6000, -61.412
1286.0000, -61.515
1286.4000, -61.549
1286.8000, -61.498
1287.2000, -61.473
1287.6000, -61.470
1288.0000, -61.570
1288.4000, -61.683
1288.8000, -61.611
1289.2000, -61.776
1289.6000, -61.709
1290.0000, -61.723
1290.4000, -61.750
1290.8000, -61.703
1291.2000, -61.759
1291.6000, -61.741
1292.0000, -61.751
1292.4000, -61.748
1292.8000, -61.745
1293.2000, -61.925
1293.6000, -61.883
1294.0000, -61.776
1294.4000, -61.954
1294.8000, -61.818
1295.2000, -61.687
1295.6000, -61.978
1296.0000, -61.926
1296.4000, -61.987
1296.8000, -61.877
1297.2000, -61.942
1297.6000, -62.083
1298.0000, -61.986
1298.4000, -62.018
1298.8000, -62.077
1299.2000, -62.181
1299.6000, -62.186
1300.0000, -62.179
1300.4000, -62.174
1300.8000, -62.299
1301.2000, -62.252
1301.6000, -62.366
1302.0000, -62.286
1302.4000, -62.171
1302.8000, -62.375
1303.2000, -62.249
1303.6000, -62.457
1304.0000, -62.458
1304.4000, -62.317
1304.8000, -62.293
1305.2000, -62.322
1305.6000, -62.407
1306.0000, -62.537
1306.4000, -62.461
1306.8000, -62.518
1307.2000, -62.425
1307.6000, -62.447
1308.0000, -62.575
1308.4000, -62.474
1308.8000, -62.439
1309.2000, -62.618
1309.6000, -62.472
1310.0000, -62.631
1310.4000, -62.587
1310.8000, -62.620
1311.2000, -62.601
1311.6000, -62.621
1312.0000, -62.689
1312.4000, -62.741
1312.8000, -62.746
1313.2000, -62.716
1313.6000, -62.623
1314.0000, -62.760
1314.4000, -62.895
1314.8000, -62.762
1315.2000, -62.838
1315.6000, -62.857
1316.0000, -62.894
1316.4000, -62.896
1316.8000, -62.918
1317.2000, -62.881
1317.6000, -62.987
1318.0000, -62.983
1318.4000, -63.072
1318.8000, -63.062
1319.2000, -63.261
1319.6000, -63.056
1320.0000, -63.156
1320.4000, -63.121
1320.8000, -63.283
1321.2000, -63.173
1321.6000, -63.160
1322.0000, -63.263
1322.4000, -63.240
1322.8000, -63.129
1323.2000, -63.236
1323.6000, -63.291
1324.0000, -63.294
1324.4000, -63.398
1324.8000, -63.357
1325.2000, -63.516
1325.6000, -63.418
1326.0000, -63.444
1326.4000, -63.534
1326.8000, -63.513
1327.2000, -63.593
1327.6000, -63.527
1328.0000, -63.505
1328.4000, -63.530
1328.8000, -63.648
1329.2000, -63.433
1329.6000, -63.632
1330.0000, -63.838
1330.4000, -63.643
1330.8000, -63.750
1331.2000, -63.744
1331.6000, -63.767
1332.0000, -63.840
1332.4000, -63.819
1332.8000, -63.847
1333.2000, -63.859
1333.6000, -64.002
1334.0000, -63.946
1334.4000, -64.174
1334.8000, -63.948
1335.2000, -63.891
1335.6000, -63.996
1336.0000, -64.042
1336.4000, -64.187
1336.8000, -64.113
1337.2000, -64.176
1337.6000, -64.228
1338.0000, -64.111
1338.4000, -64.257
1338.8000, -64.236
1339.2000, -64.164
1339.6000, -64.284
1340.0000, -64.421
1340.4000, -64.455
1340.8000, -64.407
1341.2000, -64.565
1341.6000, -64.494
1342.0000, -64.460
1342.4000, -64.605
1342.8000, -64.357
1343.2000, -64.418
1343.6000, -64.535
1344.0000, -64.598
1344.4000, -64.631
1344.8000, -64.681
1345.2000, -64.723
1345.6000, -64.724
1346.0000, -64.794
1346.4000, -64.794
1346.8000, -64.880
1347.2000, -64.936
1347.6000, -64.827
1348.0000, -64.814
1348.4000, -64.932
1348.8000, -64.937
1349.2000, -64.993
1349.6000, -64.968
1350.0000, -65.002
1350.4000, -65.159
1350.8000, -65.266
1351.2000, -65.175
1351.6000, -65.316
1352.0000, -65.279
1352.4000, -65.519
1352.8000, -65.543
1353.2000, -65.571
1353.6000, -65.550
1354.0000, -65.587
1354.4000, -65.756
1354.8000, -65.851
1355.2000, -65.996
1355.6000, -65.974
1356.0000, -65.803
1356.4000, -66.015
1356.8000, -65.683
1357.2000, -65.745
1357.6000, -65.875
1358.0000, -66.071
1358.4000, -66.016
1358.8000, -66.143
1359.2000, -66.273
1359.6000, -66.189
1360.0000, -66.620
1360.4000, -66.596
1360.8000, -66.641
1361.2000, -66.912
1361.6000, -67.248
1362.0000, -67.168
1362.4000, -67.245
1362.8000, -66.787
1363.2000, -66.621
1363.6000, -66.506
1364.0000, -66.816
1364.4000, -67.347
1364.8000, -67.183
1365.2000, -67.268
1365.6000, -67.037
1366.0000, -66.833
1366.4000, -66.820
1366.8000, -66.906
1367.2000, -67.204
1367.6000, -67.465
1368.0000, -67.569
1368.4000, -67.562
1368.8000, -67.245
1369.2000, -67.298
1369.6000, -67.149
1370.0000, -67.379
1370.4000, -67.684
1370.8000, -67.547
1371.2000, -67.604
1371.6000, -67.928
1372.0000, -67.408
1372.4000, -67.618
1372.8000, -67.424
1373.2000, -67.343
1373.6000, -67.292
1374.0000, -67.415
1374.4000, -67.649
1374.8000, -67.717
1375.2000, -67.857
1375.6000, -67.967
1376.0000, -67.763
1376.4000, -68.173
1376.8000, -68.165
1377.2000, -68.244
1377.6000, -68.223
1378.0000, -68.442
1378.4000, -68.642
1378.8000, -68.430
1379.2000, -68.748
1379.6000, -68.888
1380.0000, -69.053
1380.4000, -69.573
1380.8000, -69.713
1381.2000, -69.596
1381.6000, -69.694
1382.0000, -69.669
1382.4000, -69.704
1382.8000, -70.221
1383.2000, -70.039
1383.6000, -69.940
1384.0000, -69.715
1384.4000, -69.633
1384.8000, -69.918
1385.2000, -69.780
1385.6000, -70.342
1386.0000, -70.094
1386.4000, -69.791
1386.8000, -69.967
1387.2000, -70.286
1387.6000, -70.515
1388.0000, -70.802
1388.4000, -70.668
1388.8000, -70.647
1389.2000, -70.231
1389.6000, -70.636
1390.0000, -70.560
1390.4000, -70.506
1390.8000, -70.655
1391.2000, -70.454
1391.6000, -71.070
1392.0000, -71.117
1392.4000, -71.322
1392.8000, -71.522
1393.2000, -71.545
1393.6000, -71.132
1394.0000, -71.282
1394.4000, -71.613
1394.8000, -71.720
1395.2000, -71.947
1395.6000, -72.571
1396.0000, -72.204
1396.4000, -72.034
1396.8000, -71.890
1397.2000, -72.017
1397.6000, -71.607
1398.0000, -71.487
1398.4000, -71.391
1398.8000, -72.032
1399.2000, -72.462
1399.6000, -72.844
1400.0000, -72.797
1400.4000, -72.728
1400.8000, -72.488
1401.2000, -73.283
1401.6000, -72.684
1402.0000, -72.281
1402.4000, -72.185
1402.8000, -72.111
1403.2000, -71.832
1403.6000, -72.256
1404.0000, -72.789
1404.4000, -72.666
1404.8000, -73.264
1405.2000, -73.017
1405.6000, -73.067
1406.0000, -72.422
1406.4000, -72.593
1406.8000, -73.020
1407.2000, -72.821
1407.6000, -72.583
1408.0000, -73.020
1408.4000, -72.502
1408.8000, -72.804
1409.2000, -72.665
1409.6000, -72.723
1410.0000, -72.408
1410.4000, -72.486
1410.8000, -72.191
1411.2000, -71.909
1411.6000, -72.459
1412.0000, -72.412
1412.4000, -72.617
1412.8000, -72.683
1413.2000, -72.667
1413.6000, -72.840
1414.0000, -73.057
1414.4000, -73.118
1414.8000, -73.207
1415.2000, -72.395
1415.6000, -73.212
1416.0000, -72.525
1416.4000, -72.385
1416.8000, -72.363
1417.2000, -72.416
1417.6000, -72.396
1418.0000, -72.115
1418.4000, -72.532
1418.8000, -72.428
1419.2000, -72.626
1419.6000, -72.873
1420.0000, -72.916
1420.4000, -72.679
1420.8000, -72.814
1421.2000, -72.474
1421.6000, -72.561
1422.0000, -72.666
1422.4000, -72.802
1422.8000, -72.644
1423.2000, -72.953
1423.6000, -72.533
1424.0000, -72.722
1424.4000, -72.668
1424.8000, -72.962
1425.2000, -72.840
1425.6000, -72.949
1426.0000, -72.924
1426.4000, -72.885
1426.8000, -72.849
1427.2000, -73.213
1427.6000, -73.174
1428.0000, -72.814
1428.4000, -73.483
1428.8000, -73.198
1429.2000, -73.167
1429.6000, -73.227
1430.0000, -73.111
1430.4000, -73.235
1430.8000, -73.506
1431.2000, -73.465
1431.6000, -72.982
1432.0000, -73.183
1432.4000, -73.620
1432.8000, -73.318
1433.2000, -72.765
1433.6000, -72.813
1434.0000, -73.365
1434.4000, -73.069
1434.8000, -73.486
1435.2000, -73.043
1435.6000, -73.483
1436.0000, -73.488
1436.4000, -73.522
1436.8000, -73.426
1437.2000, -73.173
1437.6000, -73.057
1438.0000, -73.258
1438.4000, -73.236
1438.8000, -72.827
1439.2000, -73.615
1439.6000, -73.565
1440.0000, -73.542
1440.4000, -73.301
1440.8000, -73.587
1441.2000, -73.022
1441.6000, -74.158
1442.0000, -73.382
1442.4000, -73.531
1442.8000, -73.752
1443.2000, -74.397
1443.6000, -73.371
1444.0000, -74.081
1444.4000, -73.585
1444.8000, -73.580
1445.2000, -74.041
1445.6000, -74.132
1446.0000, -73.895
1446.4000, -74.132
1446.8000, -73.854
1447.2000, -74.031
1447.6000, -73.465
1448.0000, -73.656
1448.4000, -73.418
1448.8000, -73.519
1449.2000, -74.146
1449.6000, -74.395
1450.0000, -73.829
1450.4000, -74.379
1450.8000, -74.470
1451.2000, -74.231
1451.6000, -74.614
1452.0000, -74.794
1452.4000, -74.243
1452.8000, -74.302
1453.2000, -74.393
1453.6000, -74.529
1454.0000, -74.716
1454.4000, -74.212
1454.8000, -74.652
1455.2000, -75.209
1455.6000, -74.278
1456.0000, -74.695
1456.4000, -74.690
1456.8000, -73.866
1457.2000, -74.596
1457.6000, -74.229
1458.0000, -74.774
1458.4000, -75.083
1458.8000, -74.928
1459.2000, -74.683
1459.6000, -74.872
1460.0000, -74.640
1460.4000, -75.238
1460.8000, -74.854
1461.2000, -75.224
1461.6000, -75.049
1462.0000, -74.926
1462.4000, -75.190
1462.8000, -75.335
1463.2000, -74.987
1463.6000, -75.388
1464.0000, -75.188
1464.4000, -75.318
1464.8000, -75.457
1465.2000, -75.067
1465.6000, -74.994
1466.0000, -76.665
1466.4000, -76.524
1466.8000, -75.158
1467.2000, -75.026
1467.6000, -74.896
1468.0000, -74.846
1468.4000, -75.416
1468.8000, -75.396
1469.2000, -75.244
1469.6000, -75.178
1470.0000, -74.480
1470.4000, -76.123
1470.8000, -75.814
1471.2000, -76.397
1471.6000, -76.869
1472.0000, -76.014
1472.4000, -76.861
1472.8000, -75.725
1473.2000, -75.347
1473.6000, -76.123
1474.0000, -75.814
1474.4000, -75.882
1474.8000, -76.324
1475.2000, -76.339
1475.6000, -76.081
1476.0000, -77.321
1476.4000, -75.813
1476.8000, -75.673
1477.2000, -76.183
1477.6000, -75.238
1478.0000, -75.751
1478.4000, -75.490
1478.8000, -75.976
1479.2000, -75.541
1479.6000, -75.786
1480.0000, -76.970
1480.4000, -75.814
1480.8000, -75.545
1481.2000, -76.470
1481.6000, -77.084
1482.0000, -76.775
1482.4000, -76.318
1482.8000, -76.714
1483.2000, -75.714
1483.6000, -76.676
1484.0000, -76.467
1484.4000, -76.232
1484.8000, -76.741
1485.2000, -77.598
1485.6000, -76.982
1486.0000, -76.257
1486.4000, -77.368
1486.8000, -77.038
1487.2000, -76.665
1487.6000, -76.618
1488.0000, -76.909
1488.4000, -77.068
1488.8000, -77.115
1489.2000, -76.450
1489.6000, -77.785
1490.0000, -77.339
1490.4000, -76.932
1490.8000, -76.972
1491.2000, -76.565
1491.6000, -76.739
1492.0000, -76.780
1492.4000, -76.974
1492.8000, -75.876
1493.2000, -77.041
1493.6000, -76.379
1494.0000, -77.890
1494.4000, -76.485
1494.8000, -76.739
1495.2000, -76.857
1495.6000, -76.081
1496.0000, -76.730
1496.4000, -78.008
1496.8000, -77.290
1497.2000, -78.370
1497.6000, -76.716
1498.0000, -76.884
1498.4000, -77.188
1498.8000, -76.952
1499.2000, -76.023
1499.6000, -76.978
1500.0000, -78.027
1500.4000, -76.960
1500.8000, -76.666
1501.2000, -77.704
1501.6000, -77.369
1502.0000, -77.936
1502.4000, -76.805
1502.8000, -76.492
1503.2000, -77.113
1503.6000, -76.869
1504.0000, -76.848
1504.4000, -77.546
1504.8000, -76.027
1505.2000, -77.393
1505.6000, -77.833
1506.0000, -77.182
1506.4000, -76.501
1506.8000, -77.760
1507.2000, -77.596
1507.6000, -77.018
1508.0000, -77.111
1508.4000, -76.590
1508.8000, -76.569
1509.2000, -75.806
1509.6000, -76.525
1510.0000, -76.231
1510.4000, -77.162
1510.8000, -78.252
1511.2000, -77.090
1511.6000, -77.759
1512.0000, -77.062
1512.4000, -77.436
1512.8000, -76.993
1513.2000, -79.816
1513.6000, -77.481
1514.0000, -77.349
1514.4000, -78.701
1514.8000, -78.190
1515.2000, -77.963
1515.6000, -77.664
1516.0000, -78.428
1516.4000, -77.624
1516.8000, -78.393
1517.2000, -78.766
1517.6000, -76.932
1518.0000, -77.031
1518.4000, -77.756
1518.8000, -76.809
1519.2000, -77.568
1519.6000, -78.130
1520.0000, -76.869
1520.4000, -77.488
1520.8000, -77.368
1521.2000, -77.883
1521.6000, -77.682
1522.0000, -78.178
1522.4000, -77.852
1522.8000, -79.165
1523.2000, -77.672
1523.6000, -78.783
1524.0000, -79.545
1524.4000, -78.418
1524.8000, -79.104
1525.2000, -79.175
1525.6000, -77.599
1526.0000, -78.858
1526.4000, -79.398
1526.8000, -78.996
1527.2000, -79.546
1527.6000, -78.774
1528.0000, -79.422
1528.4000, -77.799
1528.8000, -78.141
1529.2000, -78.980
1529.6000, -79.923
1530.0000, -79.899
1530.4000, -78.046
1530.8000, -77.972
1531.2000, -79.920
1531.6000, -78.554
1532.0000, -79.297
1532.4000, -78.119
1532.8000, -79.937
1533.2000, -80.916
1533.6000, -79.572
1534.0000, -78.304
1534.4000, -80.099
1534.8000, -81.568
1535.2000, -82.312
1535.6000, -79.572
1536.0000, -79.151
1536.4000, -79.196
1536.8000, -79.908
1537.2000, -78.472
1537.6000, -78.493
1538.0000, -78.671
1538.4000, -81.304
1538.8000, -81.598
1539.2000, -79.675
1539.6000, -79.326
1540.0000, -81.008
1540.4000, -79.032
1540.8000, -80.422
1541.2000, -79.509
1541.6000, -79.965
1542.0000, -79.864
1542.4000, -78.557
1542.8000, -80.799
1543.2000, -79.464
1543.6000, -80.546
1544.0000, -79.718
1544.4000, -80.149
1544.8000, -80.434
1545.2000, -82.419
1545.6000, -79.929
1546.0000, -81.580
1546.4000, -81.631
1546.8000, -81.517
1547.2000, -79.708
1547.6000, -78.585
1548.0000, -78.823
1548.4000, -81.523
1548.8000, -79.974
1549.2000, -81.235
1549.6000, -78.941
1550.0000, -80.506
1550.4000, -80.678
1550.8000, -80.357
1551.2000, -79.285
1551.6000, -80.895
1552.0000, -78.651
1552.4000, -81.621
1552.8000, -80.428
1553.2000, -81.458
1553.6000, -80.796
1554.0000, -81.995
1554.4000, -81.515
1554.8000, -80.803
1555.2000, -81.506
1555.6000, -82.198
1556.0000, -79.641
1556.4000, -85.807
1556.8000, -80.647
1557.2000, -79.067
1557.6000, -79.603
1558.0000, -78.953
1558.4000, -80.279
1558.8000, -81.165
1559.2000, -80.334
1559.6000, -79.580
1560.0000, -79.373
1560.4000, -82.955
1560.8000, -81.802
1561.2000, -79.203
1561.6000, -82.080
1562.0000, -79.738
1562.4000, -79.481
1562.8000, -79.125
1563.2000, -81.147
1563.6000, -80.822
1564.0000, -81.862
1564.4000, -79.287
1564.8000, -83.582
1565.2000, -80.011
1565.6000, -80.430
1566.0000, -82.225
1566.4000, -80.601
1566.8000, -79.510
1567.2000, -84.561
1567.6000, -79.950
1568.0000, -80.390
1568.4000, -81.189
1568.8000, -80.318
1569.2000, -81.085
1569.6000, -79.724
1570.0000, -81.830
1570.4000, -79.587
1570.8000, -82.846
1571.2000, -80.136
1571.6000, -84.740
1572.0000, -79.901
1572.4000, -80.055
1572.8000, -79.487
1573.2000, -80.783
1573.6000, -81.446
1574.0000, -82.774
1574.4000, -79.548
1574.8000, -80.281
1575.2000, -81.714
1575.6000, -79.469
1576.0000, -80.904
1576.4000, -79.688
1576.8000, -81.627
1577.2000, -79.314
1577.6000, -79.809
1578.0000, -84.113
1578.4000, -82.156
1578.8000, -81.834
1579.2000, -81.138
1579.6000, -82.373
1580.0000, -81.619
1580.4000, -85.711
1580.8000, -80.281
1581.2000, -82.116
1581.6000, -79.548
1582.0000, -80.959
1582.4000, -80.939
1582.8000, -82.958
1583.2000, -79.498
1583.6000, -84.200
1584.0000, -80.783
1584.4000, -80.292
1584.8000, -82.722
1585.2000, -80.332
1585.6000, -83.038
1586.0000, -81.948
1586.4000, -78.718
1586.8000, -85.314
1587.2000, -79.540
1587.6000, -80.517
1588.0000, -80.353
1588.4000, -80.627
1588.8000, -81.569
1589.2000, -81.824
1589.6000, -79.643
1590.0000, -80.524
1590.4000, -82.461
1590.8000, -80.782
1591.2000, -81.348
1591.6000, -79.536
1592.0000, -79.618
1592.4000, -82.366
1592.8000, -81.453
1593.2000, -82.861
1593.6000, -85.852
1594.0000, -81.633
1594.4000, -82.757
1594.8000, -88.437
1595.2000, -84.871
1595.6000, -89.798
1596.0000, -83.770
1596.4000, -82.007
1596.8000, -79.158
1597.2000, -80.412
1597.6000, -81.823
1598.0000, -83.522
1598.4000, -85.909
1598.8000, -81.055
1599.2000, -83.316
1599.6000, -84.700
1600.0000, -84.281
1600.4000, -81.896
1600.8000, -82.862
1601.2000, -85.471
1601.6000, -79.945
1602.0000, -83.300
1602.4000, -82.498
1602.8000, -85.524
1603.2000,-210.000
1603.6000,-210.000
1604.0000, -89.126
1604.4000, -80.239
1604.8000, -83.336
1605.2000, -81.923
1605.6000, -81.256
1606.0000, -86.039
1606.4000, -82.925
1606.8000, -84.343
1607.2000, -81.108
1607.6000, -84.909
1608.0000, -81.714
1608.4000, -85.022
1608.8000, -87.218
1609.2000, -87.138
1609.6000, -83.733
1610.0000, -81.482
1610.4000, -83.401
1610.8000,-210.000
1611.2000, -85.550
1611.6000,-210.000
1612.0000, -82.898
1612.4000, -83.671
1612.8000, -87.079
1613.2000, -85.700
1613.6000, -85.653
1614.0000,-210.000
1614.4000, -89.138
1614.8000, -83.136
1615.2000, -90.538
1615.6000, -84.233
1616.0000, -83.515
1616.4000, -83.530
1616.8000, -95.556
1617.2000, -84.891
1617.6000, -83.234
1618.0000, -84.354
1618.4000, -85.180
1618.8000, -82.522
1619.2000, -84.756
1619.6000, -81.735
1620.0000, -81.871
1620.4000, -87.426
1620.8000, -85.103
1621.2000, -82.491
1621.6000, -95.471
1622.0000, -81.924
1622.4000, -81.646
1622.8000, -84.126
1623.2000, -91.014
1623.6000,-210.000
1624.0000, -97.083
1624.4000, -81.276
1624.8000,-107.200
1625.2000,-210.000
1625.6000, -82.256
1626.0000, -81.994
1626.4000,-210.000
1626.8000, -85.821
1627.2000, -84.496
1627.6000,-210.000
1628.0000, -84.051
1628.4000, -82.670
1628.8000, -82.350
1629.2000, -81.942
1629.6000, -85.412
1630.0000, -82.202
1630.4000, -84.178
1630.8000, -82.720
1631.2000, -86.163
1631.6000, -89.444
1632.0000, -84.630
1632.4000, -87.482
1632.8000, -83.874
1633.2000, -83.702
1633.6000, -87.232
1634.0000, -87.473
1634.4000, -84.638
1634.8000, -83.440
1635.2000, -86.540
1635.6000, -81.288
1636.0000,-210.000
1636.4000, -83.594
1636.8000, -83.061
1637.2000, -86.566
1637.6000, -87.010
1638.0000,-210.000
1638.4000,-210.000
1638.8000,-210.000
1639.2000, -88.917
1639.6000, -87.075
1640.0000, -82.853
1640.4000, -80.425
1640.8000, -86.415
1641.2000, -85.336
1641.6000, -86.059
1642.0000, -85.291
1642.4000, -84.370
1642.8000, -84.325
1643.2000,-210.000
1643.6000, -86.268
1644.0000, -82.476
1644.4000,-210.000
1644.8000, -83.219
1645.2000, -88.533
1645.6000,-210.000
1646.0000, -85.431
1646.4000, -87.100
1646.8000, -82.345
1647.2000, -85.033
1647.6000,-210.000
1648.0000,-210.000
1648.4000,-210.000
1648.8000, -83.602
1649.2000,-210.000
1649.6000, -92.816
1650.0000,-210.000
1650.4000, -82.112
1650.8000,-210.000
1651.2000, -86.618
1651.6000, -89.413
1652.0000, -90.615
1652.4000,-210.000
1652.8000,-210.000
1653.2000, -86.174
1653.6000, -86.203
1654.0000, -85.051
1654.4000,-210.000
1654.8000, -85.694
1655.2000,-210.000
1655.6000,-210.000
1656.0000, -84.246
1656.4000, -83.633
1656.8000,-210.000
1657.2000,-210.000
1657.6000,-210.000
1658.0000, -88.375
1658.4000, -89.698
1658.8000, -85.462
1659.2000,-210.000
1659.6000, -86.115
1660.0000, -82.895
1660.4000,-210.000
1660.8000, -83.533
1661.2000,-210.000
1661.6000,-210.000
1662.0000,-210.000
1662.4000,-210.000
1662.8000, -82.407
1663.2000, -80.445
1663.6000, -84.226
1664.0000, -94.106
1664.4000,-210.000
1664.8000, -81.438
1665.2000,-210.000
1665.6000, -81.443
1666.0000,-210.000
1666.4000,-210.000
1666.8000,-210.000
1667.2000,-210.000
1667.6000, -87.018
1668.0000,-210.000
1668.4000, -81.626
1668.8000,-210.000
1669.2000,-210.000
1669.6000, -77.713
1670.0000,-210.000
1670.4000,-210.000
1670.8000, -79.621
1671.2000,-210.000
1671.6000, -81.723
1672.0000, -79.915
1672.4000, -81.041
1672.8000, -88.120
1673.2000, -86.616
1673.6000,-210.000
1674.0000, -81.430
1674.4000, -79.540
1674.8000, -90.021
1675.2000,-210.000
1675.6000,-210.000
1676.0000,-210.000
1676.4000, -85.755
1676.8000,-210.000
1677.2000, -84.015
1677.6000,-210.000
1678.0000,-210.000
1678.4000,-210.000
1678.8000,-210.000
1679.2000, -76.863
1679.6000,-102.260
1680.0000, -78.530
1680.4000, -81.411
1680.8000,-210.000
1681.2000,-210.000
1681.6000,-210.000
1682.0000, -95.922
1682.4000, -76.469
1682.8000,-104.876
1683.2000, -77.576
1683.6000, -85.454
1684.0000,-210.000
1684.4000,-210.000
1684.8000,-210.000
1685.2000,-210.000
1685.6000, -83.811
1686.0000,-210.000
1686.4000, -82.088
1686.8000,-210.000
1687.2000,-210.000
1687.6000, -78.481
1688.0000, -76.479
1688.4000,-210.000
1688.8000, -78.591
1689.2000, -86.816
1689.6000,-210.000
1690.0000, -81.116
1690.4000,-210.000
1690.8000, -82.607
1691.2000, -81.045
1691.6000,-210.000
1692.0000,-210.000
1692.4000, -83.478
1692.8000, -78.888
1693.2000,-210.000
1693.6000, -77.746
1694.0000, -78.652
1694.4000,-210.000
1694.8000, -85.328
1695.2000,-210.000
1695.6000,-210.000
1696.0000,-210.000
1696.4000,-210.000
1696.8000, -74.310
1697.2000,-210.000
1697.6000,-210.000
1698.0000, -73.076
1698.4000,-210.000
1698.8000,-210.000
1699.2000,-210.000
1699.6000,-210.000
1700.0000,-210.000
